Time,ACCx_taR,ACCy_taR,ACCz_taR,GYRx_taR,GYRy_taR,GYRz_taR,ACCx_taL,ACCy_taL,ACCz_taL,GYRx_taL,GYRy_taL,GYRz_taL
0.0,8.9495,-3.4764,-3.5865,-0.0811,-0.0032,0.0015,9.1219,-2.466,3.5338,-0.0405,-0.0262,0.0312
0.001,8.949573846153847,-3.476326153846154,-3.5865,-0.0810984615384615,-0.0031984615384615,0.0015123076923076,9.12200992366412,-2.4659633587786263,3.5337274809160304,-0.0405022900763358,-0.026206106870229,0.0311885496183206
0.002,8.949647692307693,-3.476252307692308,-3.5865,-0.081096923076923,-0.003196923076923,0.0015246153846153,9.122119847328245,-2.465926717557252,3.533654961832061,-0.0405045801526717,-0.026212213740458,0.0311770992366412
0.003,8.949721538461539,-3.4761784615384617,-3.5865,-0.0810953846153846,-0.0031953846153846,0.001536923076923,9.122229770992366,-2.465890076335878,3.5335824427480915,-0.0405068702290076,-0.026218320610687,0.0311656488549618
0.004,8.949795384615385,-3.476104615384616,-3.5865,-0.0810938461538461,-0.0031938461538461,0.0015492307692307,9.122339694656487,-2.465853435114504,3.533509923664122,-0.0405091603053435,-0.026224427480916,0.0311541984732824
0.005,8.949869230769231,-3.476030769230769,-3.5865,-0.0810923076923077,-0.0031923076923076,0.0015615384615384,9.12244961832061,-2.46581679389313,3.5334374045801527,-0.0405114503816793,-0.026230534351145,0.031142748091603
0.006,8.949943076923077,-3.475956923076923,-3.5865,-0.0810907692307692,-0.0031907692307692,0.0015738461538461,9.122559541984732,-2.465780152671756,3.533364885496183,-0.0405137404580152,-0.026236641221374,0.0311312977099236
0.007,8.950016923076923,-3.475883076923077,-3.5865,-0.0810892307692307,-0.0031892307692307,0.0015861538461538,9.122669465648857,-2.465743511450382,3.533292366412214,-0.0405160305343511,-0.026242748091603,0.0311198473282442
0.008,8.95009076923077,-3.4758092307692308,-3.5865,-0.0810876923076923,-0.0031876923076923,0.0015984615384615,9.122779389312978,-2.465706870229008,3.5332198473282443,-0.040518320610687,-0.026248854961832,0.0311083969465648
0.009,8.950164615384615,-3.4757353846153847,-3.5865,-0.0810861538461538,-0.0031861538461538,0.0016107692307692,9.1228893129771,-2.4656702290076336,3.5331473282442745,-0.0405206106870229,-0.026254961832061,0.0310969465648854
0.01,8.950238461538461,-3.4756615384615386,-3.5865,-0.0810846153846154,-0.0031846153846153,0.0016230769230769,9.122999236641222,-2.46563358778626,3.533074809160305,-0.0405229007633587,-0.02626106870229,0.0310854961832061
0.011,8.950312307692307,-3.4755876923076925,-3.5865,-0.0810830769230769,-0.0031830769230769,0.0016353846153845,9.123109160305344,-2.4655969465648857,3.533002290076336,-0.0405251908396946,-0.026267175572519,0.0310740458015267
0.012,8.950386153846154,-3.4755138461538464,-3.5865,-0.0810815384615384,-0.0031815384615384,0.0016476923076922,9.123219083969463,-2.465560305343512,3.532929770992366,-0.0405274809160305,-0.026273282442748,0.0310625954198473
0.013,8.95046,-3.4754400000000003,-3.5865,-0.08108,-0.00318,0.0016599999999999,9.123329007633588,-2.4655236641221374,3.5328572519083967,-0.0405297709923664,-0.0262793893129771,0.0310511450381679
0.014,8.950533846153846,-3.4753661538461538,-3.5865,-0.0810784615384615,-0.0031784615384615,0.0016723076923076,9.12343893129771,-2.4654870229007635,3.5327847328244277,-0.0405320610687022,-0.0262854961832061,0.0310396946564885
0.015,8.950607692307692,-3.475292307692308,-3.5865,-0.081076923076923,-0.003176923076923,0.0016846153846153,9.123548854961832,-2.4654503816793896,3.532712213740458,-0.0405343511450381,-0.0262916030534351,0.0310282442748091
0.016,8.950681538461538,-3.4752184615384616,-3.5865,-0.0810753846153846,-0.0031753846153846,0.001696923076923,9.123658778625954,-2.465413740458015,3.5326396946564884,-0.040536641221374,-0.0262977099236641,0.0310167938931297
0.017,8.950755384615384,-3.4751446153846155,-3.5865,-0.0810738461538461,-0.0031738461538461,0.0017092307692307,9.123768702290077,-2.4653770992366413,3.532567175572519,-0.0405389312977099,-0.0263038167938931,0.0310053435114503
0.018,8.95082923076923,-3.4750707692307694,-3.5865,-0.0810723076923077,-0.0031723076923076,0.0017215384615384,9.123878625954198,-2.465340458015268,3.532494656488549,-0.0405412213740458,-0.0263099236641221,0.0309938931297709
0.019,8.950903076923076,-3.4749969230769238,-3.5865,-0.0810707692307692,-0.0031707692307692,0.0017338461538461,9.12398854961832,-2.465303816793893,3.53242213740458,-0.0405435114503816,-0.0263160305343511,0.0309824427480916
0.02,8.950976923076922,-3.474923076923077,-3.5865,-0.0810692307692307,-0.0031692307692307,0.0017461538461538,9.124098473282444,-2.465267175572519,3.5323496183206107,-0.0405458015267175,-0.0263221374045801,0.0309709923664122
0.021,8.951050769230768,-3.474849230769231,-3.5865,-0.0810676923076923,-0.0031676923076923,0.0017584615384614,9.124208396946566,-2.465230534351145,3.532277099236641,-0.0405480916030534,-0.0263282442748091,0.0309595419847328
0.022,8.951124615384616,-3.474775384615385,-3.5865,-0.0810661538461538,-0.0031661538461538,0.0017707692307691,9.124318320610689,-2.465193893129771,3.532204580152672,-0.0405503816793893,-0.0263343511450381,0.0309480916030534
0.023,8.951198461538462,-3.474701538461539,-3.5865,-0.0810646153846154,-0.0031646153846153,0.0017830769230768,9.12442824427481,-2.4651572519083973,3.5321320610687024,-0.0405526717557251,-0.0263404580152671,0.030936641221374
0.024,8.951272307692308,-3.4746276923076924,-3.5865,-0.0810630769230769,-0.0031630769230769,0.0017953846153845,9.124538167938931,-2.465120610687023,3.532059541984733,-0.040554961832061,-0.0263465648854961,0.0309251908396946
0.025,8.951346153846155,-3.4745538461538463,-3.5865,-0.0810615384615384,-0.0031615384615384,0.0018076923076922,9.124648091603053,-2.465083969465649,3.531987022900763,-0.0405572519083969,-0.0263526717557251,0.0309137404580152
0.026,8.95142,-3.47448,-3.5865,-0.08106,-0.00316,0.0018199999999999,9.124758015267176,-2.465047328244275,3.5319145038167936,-0.0405595419847328,-0.0263587786259541,0.0309022900763358
0.027,8.951493846153847,-3.474406153846154,-3.5865,-0.0810584615384615,-0.0031584615384615,0.0018323076923076,9.124867938931295,-2.4650106870229007,3.531841984732824,-0.0405618320610687,-0.0263648854961832,0.0308908396946564
0.028,8.951567692307693,-3.474332307692308,-3.5865,-0.0810569230769231,-0.003156923076923,0.0018446153846153,9.12497786259542,-2.464974045801527,3.5317694656488547,-0.0405641221374045,-0.0263709923664122,0.0308793893129771
0.029,8.951641538461539,-3.474258461538462,-3.5865,-0.0810553846153846,-0.0031553846153846,0.001856923076923,9.125087786259542,-2.464937404580153,3.5316969465648853,-0.0405664122137404,-0.0263770992366412,0.0308679389312977
0.03,8.951715384615385,-3.474184615384616,-3.5865,-0.0810538461538461,-0.0031538461538461,0.0018692307692307,9.125197709923665,-2.464900763358779,3.531624427480916,-0.0405687022900763,-0.0263832061068702,0.0308564885496183
0.031,8.951789230769231,-3.47411076923077,-3.5865,-0.0810523076923077,-0.0031523076923077,0.0018815384615383,9.125307633587786,-2.4648641221374046,3.5315519083969464,-0.0405709923664122,-0.0263893129770992,0.0308450381679389
0.032,8.951863076923077,-3.474036923076924,-3.5865,-0.0810507692307692,-0.0031507692307692,0.001893846153846,9.12541755725191,-2.4648274809160307,3.531479389312977,-0.040573282442748,-0.0263954198473282,0.0308335877862595
0.033,8.951936923076923,-3.473963076923077,-3.5865,-0.0810492307692307,-0.0031492307692307,0.0019061538461537,9.12552748091603,-2.4647908396946567,3.531406870229008,-0.0405755725190839,-0.0264015267175572,0.0308221374045801
0.034,8.95201076923077,-3.473889230769231,-3.5865,-0.0810476923076923,-0.0031476923076923,0.0019184615384614,9.125637404580154,-2.4647541984732824,3.531334351145038,-0.0405778625954198,-0.0264076335877862,0.0308106870229007
0.035,8.952084615384615,-3.473815384615385,-3.5865,-0.0810461538461538,-0.0031461538461538,0.0019307692307691,9.125747328244277,-2.4647175572519084,3.5312618320610687,-0.0405801526717557,-0.0264137404580152,0.0307992366412213
0.036,8.952158461538462,-3.473741538461539,-3.5865,-0.0810446153846154,-0.0031446153846153,0.0019430769230768,9.125857251908396,-2.4646809160305345,3.5311893129770997,-0.0405824427480916,-0.0264198473282442,0.0307877862595419
0.037,8.952232307692308,-3.473667692307693,-3.5865,-0.0810430769230769,-0.0031430769230769,0.0019553846153845,9.12596717557252,-2.4646442748091606,3.53111679389313,-0.0405847328244274,-0.0264259541984732,0.0307763358778625
0.038,8.952306153846154,-3.4735938461538467,-3.5865,-0.0810415384615384,-0.0031415384615384,0.0019676923076922,9.12607709923664,-2.4646076335877862,3.5310442748091604,-0.0405870229007633,-0.0264320610687022,0.0307648854961832
0.039,8.95238,-3.4735200000000006,-3.5865,-0.08104,-0.00314,0.0019799999999999,9.126187022900764,-2.4645709923664123,3.530971755725191,-0.0405893129770992,-0.0264381679389313,0.0307534351145038
0.04,8.952453846153846,-3.4734461538461545,-3.5865,-0.0810384615384615,-0.0031384615384615,0.0019923076923076,9.126296946564883,-2.4645343511450384,3.530899236641221,-0.0405916030534351,-0.0264442748091603,0.0307419847328244
0.041,8.952527692307692,-3.4733723076923084,-3.5865,-0.081036923076923,-0.003136923076923,0.0020046153846152,9.126406870229008,-2.464497709923664,3.530826717557252,-0.0405938931297709,-0.0264503816793893,0.030730534351145
0.042,8.952601538461538,-3.473298461538462,-3.5865,-0.0810353846153846,-0.0031353846153846,0.0020169230769229,9.12651679389313,-2.46446106870229,3.530754198473282,-0.0405961832061068,-0.0264564885496183,0.0307190839694656
0.043,8.952675384615384,-3.473224615384616,-3.5865,-0.0810338461538461,-0.0031338461538461,0.0020292307692306,9.126626717557253,-2.464424427480916,3.5306816793893128,-0.0405984732824427,-0.0264625954198473,0.0307076335877862
0.044,8.95274923076923,-3.4731507692307697,-3.5865,-0.0810323076923077,-0.0031323076923077,0.0020415384615383,9.126736641221374,-2.4643877862595422,3.5306091603053438,-0.0406007633587786,-0.0264687022900763,0.0306961832061068
0.045,8.952823076923076,-3.473076923076924,-3.5865,-0.0810307692307692,-0.0031307692307692,0.002053846153846,9.126846564885495,-2.464351145038168,3.530536641221374,-0.0406030534351145,-0.0264748091603053,0.0306847328244274
0.046,8.952896923076922,-3.473003076923077,-3.5865,-0.0810292307692307,-0.0031292307692307,0.0020661538461537,9.126956488549618,-2.464314503816794,3.5304641221374045,-0.0406053435114503,-0.0264809160305343,0.030673282442748
0.047,8.952970769230769,-3.4729292307692314,-3.5865,-0.0810276923076923,-0.0031276923076923,0.0020784615384614,9.12706641221374,-2.46427786259542,3.530391603053435,-0.0406076335877862,-0.0264870229007633,0.0306618320610687
0.048,8.953044615384615,-3.4728553846153853,-3.5865,-0.0810261538461538,-0.0031261538461538,0.0020907692307691,9.127176335877865,-2.4642412213740457,3.5303190839694656,-0.0406099236641221,-0.0264931297709923,0.0306503816793893
0.049,8.95311846153846,-3.4727815384615397,-3.5865,-0.0810246153846154,-0.0031246153846153,0.0021030769230768,9.127286259541984,-2.464204580152672,3.530246564885496,-0.040612213740458,-0.0264992366412213,0.0306389312977099
0.05,8.953192307692307,-3.472707692307693,-3.5865,-0.0810230769230769,-0.0031230769230769,0.0021153846153845,9.127396183206107,-2.464167938931298,3.5301740458015267,-0.0406145038167938,-0.0265053435114503,0.0306274809160305
0.051,8.953266153846153,-3.472633846153846,-3.5865,-0.0810215384615384,-0.0031215384615384,0.0021276923076921,9.127506106870229,-2.464131297709924,3.5301015267175573,-0.0406167938931297,-0.0265114503816793,0.0306160305343511
0.052,8.953339999999999,-3.4725600000000005,-3.5865,-0.08102,-0.00312,0.0021399999999998,9.127616030534352,-2.464094656488549,3.530029007633588,-0.0406190839694656,-0.0265175572519083,0.0306045801526717
0.053,8.953413846153845,-3.4724861538461544,-3.5865,-0.0810184615384615,-0.0031184615384615,0.0021523076923075,9.127725954198471,-2.464058015267176,3.5299564885496184,-0.0406213740458015,-0.0265236641221374,0.0305931297709923
0.054,8.953487692307691,-3.4724123076923084,-3.5865,-0.0810169230769231,-0.003116923076923,0.0021646153846152,9.127835877862596,-2.4640213740458017,3.529883969465649,-0.0406236641221374,-0.0265297709923664,0.0305816793893129
0.055,8.953561538461537,-3.4723384615384623,-3.5865,-0.0810153846153846,-0.0031153846153846,0.0021769230769229,9.127945801526716,-2.4639847328244278,3.5298114503816795,-0.0406259541984732,-0.0265358778625954,0.0305702290076335
0.056,8.953635384615383,-3.472264615384616,-3.5865,-0.0810138461538461,-0.0031138461538461,0.0021892307692306,9.12805572519084,-2.4639480916030534,3.52973893129771,-0.0406282442748091,-0.0265419847328244,0.0305587786259542
0.057,8.95370923076923,-3.47219076923077,-3.5865,-0.0810123076923077,-0.0031123076923077,0.0022015384615383,9.128165648854962,-2.4639114503816795,3.5296664122137407,-0.040630534351145,-0.0265480916030534,0.0305473282442748
0.058,8.953783076923076,-3.472116923076924,-3.5865,-0.0810107692307692,-0.0031107692307692,0.002213846153846,9.128275572519083,-2.463874809160305,3.529593893129771,-0.0406328244274809,-0.0265541984732824,0.0305358778625954
0.059,8.953856923076922,-3.472043076923078,-3.5865,-0.0810092307692307,-0.0031092307692307,0.0022261538461537,9.128385496183206,-2.463838167938931,3.5295213740458014,-0.0406351145038167,-0.0265603053435114,0.030524427480916
0.06,8.953930769230768,-3.471969230769232,-3.5865,-0.0810076923076923,-0.0031076923076923,0.0022384615384614,9.128495419847328,-2.4638015267175573,3.529448854961832,-0.0406374045801526,-0.0265664122137404,0.0305129770992366
0.061,8.954004615384614,-3.4718953846153853,-3.5865,-0.0810061538461538,-0.0031061538461538,0.002250769230769,9.12860534351145,-2.4637648854961838,3.5293763358778625,-0.0406396946564885,-0.0265725190839694,0.0305015267175572
0.062,8.95407846153846,-3.471821538461539,-3.5865,-0.0810046153846154,-0.0031046153846154,0.0022630769230767,9.128715267175572,-2.463728244274809,3.529303816793893,-0.0406419847328244,-0.0265786259541984,0.0304900763358778
0.063,8.954152307692306,-3.471747692307693,-3.5865,-0.0810030769230769,-0.0031030769230769,0.0022753846153844,9.128825190839695,-2.463691603053435,3.529231297709924,-0.0406442748091603,-0.0265847328244274,0.0304786259541984
0.064,8.954226153846152,-3.471673846153847,-3.5865,-0.0810015384615384,-0.0031015384615384,0.0022876923076921,9.128935114503816,-2.463654961832061,3.529158778625954,-0.0406465648854961,-0.0265908396946564,0.030467175572519
0.065,8.9543,-3.471600000000001,-3.5865,-0.081,-0.0031,0.0022999999999998,9.12904503816794,-2.463618320610687,3.5290862595419847,-0.040648854961832,-0.0265969465648854,0.0304557251908396
0.066,8.95415230769231,-3.4717476923076904,-3.5868692307692265,-0.0810015384615384,-0.0030969230769231,0.0023076923076922,9.12915496183206,-2.463581679389313,3.5290137404580157,-0.0406511450381679,-0.0266030534351145,0.0304442748091603
0.067,8.954004615384617,-3.471895384615383,-3.5872384615384574,-0.0810030769230769,-0.0030938461538461,0.0023153846153845,9.129264885496184,-2.463545038167939,3.528941221374046,-0.0406534351145038,-0.0266091603053435,0.0304328244274809
0.068,8.953856923076925,-3.4720430769230752,-3.587607692307688,-0.0810046153846153,-0.0030907692307692,0.0023230769230768,9.129374809160304,-2.463508396946565,3.5288687022900764,-0.0406557251908396,-0.0266152671755725,0.0304213740458015
0.069,8.953709230769233,-3.4721907692307674,-3.5879769230769187,-0.0810061538461538,-0.0030876923076923,0.0023307692307691,9.129484732824428,-2.463471755725191,3.528796183206107,-0.0406580152671755,-0.0266213740458015,0.0304099236641221
0.07,8.95356153846154,-3.47233846153846,-3.5883461538461496,-0.0810076923076923,-0.0030846153846154,0.0023384615384614,9.12959465648855,-2.4634351145038167,3.5287236641221376,-0.0406603053435114,-0.0266274809160305,0.0303984732824427
0.071,8.953413846153849,-3.472486153846152,-3.5887153846153805,-0.0810092307692307,-0.0030815384615384,0.0023461538461537,9.129704580152673,-2.4633984732824428,3.528651145038168,-0.0406625954198473,-0.0266335877862595,0.0303870229007633
0.072,8.953266153846155,-3.4726338461538444,-3.589084615384611,-0.0810107692307692,-0.0030784615384615,0.002353846153846,9.129814503816794,-2.463361832061069,3.5285786259541987,-0.0406648854961832,-0.0266396946564885,0.0303755725190839
0.073,8.953118461538462,-3.4727815384615366,-3.589453846153842,-0.0810123076923076,-0.0030753846153846,0.0023615384615383,9.129924427480915,-2.4633251908396945,3.5285061068702293,-0.040667175572519,-0.0266458015267175,0.0303641221374045
0.074,8.95297076923077,-3.472929230769229,-3.589823076923073,-0.0810138461538461,-0.0030723076923077,0.0023692307692306,9.13003435114504,-2.463288549618321,3.52843358778626,-0.0406694656488549,-0.0266519083969465,0.0303526717557251
0.075,8.952823076923078,-3.4730769230769214,-3.5901923076923032,-0.0810153846153846,-0.0030692307692308,0.0023769230769229,9.13014427480916,-2.463251908396946,3.52836106870229,-0.0406717557251908,-0.0266580152671755,0.0303412213740458
0.076,8.952675384615386,-3.4732246153846136,-3.590561538461534,-0.081016923076923,-0.0030661538461538,0.0023846153846152,9.130254198473285,-2.4632152671755727,3.5282885496183205,-0.0406740458015267,-0.0266641221374045,0.0303297709923664
0.077,8.952527692307694,-3.4733723076923058,-3.590930769230765,-0.0810184615384615,-0.0030630769230769,0.0023923076923076,9.130364122137404,-2.4631786259541983,3.528216030534351,-0.0406763358778625,-0.0266702290076335,0.030318320610687
0.078,8.952380000000002,-3.4735199999999984,-3.591299999999996,-0.0810199999999999,-0.00306,0.0023999999999999,9.130474045801527,-2.4631419847328244,3.5281435114503816,-0.0406786259541984,-0.0266763358778625,0.0303068702290076
0.079,8.95223230769231,-3.4736676923076906,-3.5916692307692264,-0.0810215384615384,-0.0030569230769231,0.0024076923076922,9.130583969465649,-2.4631053435114505,3.528070992366412,-0.0406809160305343,-0.0266824427480916,0.0302954198473282
0.08,8.952084615384617,-3.4738153846153828,-3.5920384615384573,-0.0810230769230769,-0.0030538461538461,0.0024153846153845,9.130693893129772,-2.463068702290076,3.5279984732824428,-0.0406832061068702,-0.0266885496183206,0.0302839694656488
0.081,8.951936923076925,-3.473963076923076,-3.592407692307688,-0.0810246153846153,-0.0030507692307692,0.0024230769230768,9.130803816793891,-2.463032061068702,3.5279259541984733,-0.0406854961832061,-0.0266946564885496,0.0302725190839694
0.082,8.951789230769233,-3.474110769230768,-3.592776923076919,-0.0810261538461538,-0.0030476923076923,0.0024307692307691,9.130913740458016,-2.4629954198473283,3.527853435114504,-0.0406877862595419,-0.0267007633587786,0.03026106870229
0.083,8.95164153846154,-3.47425846153846,-3.593146153846149,-0.0810276923076923,-0.0030446153846154,0.0024384615384614,9.131023664122138,-2.4629587786259544,3.5277809160305345,-0.0406900763358778,-0.0267068702290076,0.0302496183206106
0.084,8.951493846153847,-3.4744061538461524,-3.5935153846153804,-0.0810292307692307,-0.0030415384615384,0.0024461538461537,9.13113358778626,-2.46292213740458,3.527708396946565,-0.0406923664122137,-0.0267129770992366,0.0302381679389313
0.085,8.951346153846155,-3.4745538461538445,-3.593884615384612,-0.0810307692307692,-0.0030384615384615,0.002453846153846,9.131243511450382,-2.462885496183206,3.527635877862596,-0.0406946564885496,-0.0267190839694656,0.0302267175572519
0.086,8.951198461538462,-3.4747015384615367,-3.5942538461538422,-0.0810323076923076,-0.0030353846153846,0.0024615384615383,9.131353435114503,-2.462848854961832,3.527563358778626,-0.0406969465648855,-0.0267251908396946,0.0302152671755725
0.087,8.95105076923077,-3.474849230769229,-3.5946230769230727,-0.0810338461538461,-0.0030323076923077,0.0024692307692306,9.131463358778626,-2.462812213740458,3.5274908396946567,-0.0406992366412213,-0.0267312977099236,0.0302038167938931
0.088,8.950903076923078,-3.474996923076921,-3.594992307692304,-0.0810353846153846,-0.0030292307692308,0.0024769230769229,9.131573282442748,-2.462775572519084,3.5274183206106877,-0.0407015267175572,-0.0267374045801526,0.0301923664122137
0.089,8.950755384615386,-3.4751446153846137,-3.5953615384615345,-0.081036923076923,-0.0030261538461538,0.0024846153846152,9.131683206106873,-2.46273893129771,3.527345801526718,-0.0407038167938931,-0.0267435114503816,0.0301809160305343
0.09,8.950607692307694,-3.475292307692306,-3.595730769230765,-0.0810384615384615,-0.0030230769230769,0.0024923076923076,9.131793129770992,-2.462702290076336,3.5272732824427484,-0.040706106870229,-0.0267496183206106,0.0301694656488549
0.091,8.950460000000001,-3.4754399999999985,-3.596099999999996,-0.0810399999999999,-0.00302,0.0024999999999999,9.131903053435115,-2.4626656488549616,3.5272007633587785,-0.0407083969465648,-0.0267557251908396,0.0301580152671755
0.092,8.95031230769231,-3.4755876923076907,-3.5964692307692268,-0.0810415384615384,-0.0030169230769231,0.0025076923076922,9.132012977099237,-2.462629007633588,3.527128244274809,-0.0407106870229007,-0.0267618320610687,0.0301465648854961
0.093,8.950164615384617,-3.475735384615383,-3.5968384615384577,-0.0810430769230769,-0.0030138461538461,0.0025153846153845,9.13212290076336,-2.462592366412214,3.52705572519084,-0.0407129770992366,-0.0267679389312977,0.0301351145038167
0.094,8.950016923076925,-3.475883076923075,-3.597207692307688,-0.0810446153846153,-0.0030107692307692,0.0025230769230768,9.13223282442748,-2.4625557251908394,3.52698320610687,-0.0407152671755725,-0.0267740458015267,0.0301236641221374
0.095,8.949869230769233,-3.476030769230768,-3.597576923076919,-0.0810461538461538,-0.0030076923076923,0.0025307692307691,9.132342748091604,-2.462519083969465,3.526910687022901,-0.0407175572519084,-0.0267801526717557,0.030112213740458
0.096,8.94972153846154,-3.47617846153846,-3.59794615384615,-0.0810476923076922,-0.0030046153846154,0.0025384615384614,9.132452671755726,-2.462482442748092,3.526838167938932,-0.0407198473282442,-0.0267862595419847,0.0301007633587786
0.097,8.949573846153847,-3.476326153846152,-3.598315384615381,-0.0810492307692307,-0.0030015384615384,0.0025461538461537,9.132562595419849,-2.4624458015267177,3.526765648854962,-0.0407221374045801,-0.0267923664122137,0.0300893129770992
0.098,8.949426153846154,-3.4764738461538447,-3.5986846153846117,-0.0810507692307692,-0.0029984615384615,0.002553846153846,9.13267251908397,-2.4624091603053437,3.5266931297709925,-0.040724427480916,-0.0267984732824427,0.0300778625954198
0.099,8.949278461538462,-3.476621538461537,-3.599053846153842,-0.0810523076923076,-0.0029953846153846,0.0025615384615383,9.132782442748091,-2.4623725190839694,3.526620610687023,-0.0407267175572519,-0.0268045801526717,0.0300664122137404
0.1,8.94913076923077,-3.476769230769229,-3.599423076923073,-0.0810538461538461,-0.0029923076923077,0.0025692307692306,9.132892366412214,-2.4623358778625954,3.5265480916030536,-0.0407290076335877,-0.0268106870229007,0.030054961832061
0.101,8.948983076923078,-3.476916923076921,-3.599792307692304,-0.0810553846153846,-0.0029892307692308,0.0025769230769229,9.133002290076336,-2.462299236641221,3.526475572519084,-0.0407312977099236,-0.0268167938931297,0.0300435114503816
0.102,8.948835384615386,-3.477064615384614,-3.6001615384615344,-0.081056923076923,-0.0029861538461538,0.0025846153846153,9.13311221374046,-2.462262595419847,3.5264030534351147,-0.0407335877862595,-0.0268229007633587,0.0300320610687022
0.103,8.948687692307693,-3.477212307692306,-3.6005307692307653,-0.0810584615384615,-0.0029830769230769,0.0025923076923076,9.13322213740458,-2.462225954198473,3.5263305343511453,-0.0407358778625954,-0.0268290076335877,0.0300206106870229
0.104,8.948540000000001,-3.4773599999999982,-3.600899999999996,-0.08106,-0.00298,0.0025999999999999,9.133332061068703,-2.4621893129770998,3.526258015267176,-0.0407381679389313,-0.0268351145038167,0.0300091603053435
0.105,8.948392307692309,-3.477507692307691,-3.601269230769227,-0.0810615384615384,-0.0029769230769231,0.0026076923076922,9.133441984732825,-2.462152671755725,3.5261854961832064,-0.0407404580152671,-0.0268412213740458,0.0299977099236641
0.106,8.948244615384617,-3.477655384615383,-3.6016384615384576,-0.0810630769230769,-0.0029738461538461,0.0026153846153845,9.133551908396948,-2.462116030534351,3.526112977099237,-0.040742748091603,-0.0268473282442748,0.0299862595419847
0.107,8.948096923076925,-3.477803076923075,-3.6020076923076885,-0.0810646153846153,-0.0029707692307692,0.0026230769230768,9.133661832061067,-2.462079389312977,3.526040458015267,-0.0407450381679389,-0.0268534351145038,0.0299748091603053
0.108,8.947949230769233,-3.4779507692307674,-3.60237692307692,-0.0810661538461538,-0.0029676923076923,0.0026307692307691,9.13377175572519,-2.462042748091603,3.5259679389312977,-0.0407473282442748,-0.0268595419847328,0.0299633587786259
0.109,8.947801538461539,-3.47809846153846,-3.60274615384615,-0.0810676923076923,-0.0029646153846154,0.0026384615384614,9.133881679389312,-2.462006106870229,3.525895419847328,-0.0407496183206106,-0.0268656488549618,0.0299519083969465
0.11,8.947653846153846,-3.478246153846152,-3.6031153846153807,-0.0810692307692307,-0.0029615384615384,0.0026461538461537,9.133991603053436,-2.461969465648855,3.525822900763359,-0.0407519083969465,-0.0268717557251908,0.0299404580152671
0.111,8.947506153846154,-3.4783938461538444,-3.603484615384612,-0.0810707692307692,-0.0029584615384615,0.002653846153846,9.134101526717558,-2.461932824427481,3.5257503816793894,-0.0407541984732824,-0.0268778625954198,0.0299290076335877
0.112,8.947358461538462,-3.478541538461537,-3.6038538461538425,-0.0810723076923076,-0.0029553846153846,0.0026615384615383,9.13421145038168,-2.4618961832061066,3.52567786259542,-0.0407564885496183,-0.0268839694656488,0.0299175572519084
0.113,8.94721076923077,-3.478689230769229,-3.604223076923073,-0.0810738461538461,-0.0029523076923077,0.0026692307692306,9.134321374045802,-2.4618595419847327,3.5256053435114505,-0.0407587786259542,-0.0268900763358778,0.029906106870229
0.114,8.947063076923078,-3.4788369230769214,-3.604592307692304,-0.0810753846153846,-0.0029492307692308,0.0026769230769229,9.134431297709924,-2.4618229007633587,3.525532824427481,-0.04076106870229,-0.0268961832061068,0.0298946564885496
0.115,8.946915384615385,-3.4789846153846136,-3.604961538461535,-0.081076923076923,-0.0029461538461538,0.0026846153846153,9.134541221374048,-2.461786259541985,3.525460305343512,-0.0407633587786259,-0.0269022900763358,0.0298832061068702
0.116,8.946767692307693,-3.479132307692306,-3.6053307692307657,-0.0810784615384615,-0.0029430769230769,0.0026923076923076,9.134651145038168,-2.4617496183206105,3.525387786259542,-0.0407656488549618,-0.0269083969465648,0.0298717557251908
0.117,8.946620000000001,-3.4792799999999984,-3.605699999999996,-0.0810799999999999,-0.00294,0.0026999999999999,9.134761068702293,-2.4617129770992365,3.5253152671755728,-0.0407679389312977,-0.0269145038167938,0.0298603053435114
0.118,8.946472307692309,-3.4794276923076906,-3.606069230769227,-0.0810815384615384,-0.0029369230769231,0.0027076923076922,9.134870992366412,-2.4616763358778626,3.5252427480916038,-0.0407702290076335,-0.0269206106870228,0.029848854961832
0.119,8.946324615384617,-3.479575384615383,-3.606438461538458,-0.0810830769230769,-0.0029338461538461,0.0027153846153845,9.134980916030534,-2.461639694656488,3.525170229007634,-0.0407725190839694,-0.0269267175572519,0.0298374045801526
0.12,8.946176923076925,-3.479723076923076,-3.606807692307689,-0.0810846153846153,-0.0029307692307692,0.0027230769230768,9.135090839694657,-2.4616030534351143,3.5250977099236644,-0.0407748091603053,-0.0269328244274809,0.0298259541984732
0.121,8.946029230769232,-3.4798707692307675,-3.6071769230769193,-0.0810861538461538,-0.0029276923076923,0.0027307692307691,9.135200763358778,-2.4615664122137404,3.525025190839695,-0.0407770992366412,-0.0269389312977099,0.0298145038167938
0.122,8.945881538461538,-3.48001846153846,-3.60754615384615,-0.0810876923076922,-0.0029246153846154,0.0027384615384614,9.1353106870229,-2.4615297709923665,3.5249526717557256,-0.0407793893129771,-0.0269450381679389,0.0298030534351145
0.123,8.945733846153846,-3.4801661538461524,-3.607915384615381,-0.0810892307692307,-0.0029215384615384,0.0027461538461537,9.135420610687024,-2.461493129770992,3.524880152671756,-0.0407816793893129,-0.0269511450381679,0.0297916030534351
0.124,8.945586153846154,-3.4803138461538445,-3.608284615384612,-0.0810907692307692,-0.0029184615384615,0.002753846153846,9.135530534351146,-2.461456488549618,3.5248076335877863,-0.0407839694656488,-0.0269572519083969,0.0297801526717557
0.125,8.945438461538462,-3.4804615384615367,-3.6086538461538415,-0.0810923076923076,-0.0029153846153846,0.0027615384615383,9.135640458015269,-2.4614198473282443,3.524735114503817,-0.0407862595419847,-0.0269633587786259,0.0297687022900763
0.126,8.94529076923077,-3.4806092307692293,-3.609023076923073,-0.0810938461538461,-0.0029123076923077,0.0027692307692306,9.13575038167939,-2.46138320610687,3.5246625954198474,-0.0407885496183206,-0.0269694656488549,0.0297572519083969
0.127,8.945143076923078,-3.480756923076921,-3.609392307692304,-0.0810953846153846,-0.0029092307692307,0.002776923076923,9.135860305343511,-2.461346564885496,3.524590076335878,-0.0407908396946564,-0.0269755725190839,0.0297458015267175
0.128,8.944995384615385,-3.4809046153846137,-3.609761538461535,-0.081096923076923,-0.0029061538461538,0.0027846153846153,9.135970229007636,-2.461309923664122,3.5245175572519085,-0.0407931297709923,-0.0269816793893129,0.0297343511450381
0.129,8.944847692307693,-3.4810523076923063,-3.6101307692307656,-0.0810984615384615,-0.0029030769230769,0.0027923076923076,9.136080152671756,-2.461273282442748,3.524445038167939,-0.0407954198473282,-0.0269877862595419,0.0297229007633587
0.13,8.944700000000001,-3.4811999999999985,-3.610499999999997,-0.0810999999999999,-0.0029,0.0027999999999999,9.13619007633588,-2.4612366412213738,3.5243725190839696,-0.0407977099236641,-0.0269938931297709,0.0297114503816793
0.131,8.94491818181818,-3.481127272727273,-3.610136363636367,-0.0811,-0.0029,0.0028,9.1363,-2.4612,3.5243,-0.0408,-0.027,0.0297
0.132,8.94513636363636,-3.481054545454546,-3.609772727272731,-0.0811,-0.0029,0.0028,9.13619007633588,-2.4610908396946565,3.524336641221374,-0.0407984732824427,-0.0270206106870228,0.0296977099236641
0.133,8.945354545454542,-3.4809818181818186,-3.6094090909090943,-0.0811,-0.0029,0.0028,9.136080152671756,-2.4609816793893127,3.5243732824427485,-0.0407969465648855,-0.0270412213740457,0.0296954198473282
0.134,8.945572727272724,-3.4809090909090914,-3.609045454545458,-0.0811,-0.0029,0.0028,9.135970229007636,-2.4608725190839693,3.5244099236641224,-0.0407954198473282,-0.0270618320610686,0.0296931297709923
0.135,8.945790909090906,-3.480836363636364,-3.6086818181818217,-0.0811,-0.0029,0.0028,9.135860305343511,-2.460763358778626,3.5244465648854963,-0.040793893129771,-0.0270824427480915,0.0296908396946564
0.136,8.946009090909088,-3.480763636363637,-3.6083181818181855,-0.0811,-0.0029,0.0028,9.13575038167939,-2.460654198473282,3.5244832061068703,-0.0407923664122137,-0.0271030534351145,0.0296885496183206
0.137,8.94622727272727,-3.4806909090909097,-3.607954545454549,-0.0811,-0.0029,0.0028,9.135640458015269,-2.460545038167939,3.5245198473282446,-0.0407908396946564,-0.0271236641221374,0.0296862595419847
0.138,8.94644545454545,-3.4806181818181825,-3.607590909090913,-0.0811,-0.0029,0.0028,9.135530534351146,-2.4604358778625954,3.5245564885496186,-0.0407893129770992,-0.0271442748091603,0.0296839694656488
0.139,8.946663636363633,-3.4805454545454557,-3.607227272727276,-0.0811,-0.0029,0.0028,9.135420610687024,-2.460326717557252,3.5245931297709925,-0.0407877862595419,-0.0271648854961832,0.0296816793893129
0.14,8.946881818181815,-3.480472727272728,-3.60686363636364,-0.0811,-0.0029,0.0028,9.1353106870229,-2.4602175572519083,3.5246297709923664,-0.0407862595419847,-0.0271854961832061,0.0296793893129771
0.141,8.947099999999997,-3.4804000000000004,-3.606500000000004,-0.0811,-0.0029,0.0028,9.135200763358778,-2.460108396946565,3.5246664122137408,-0.0407847328244274,-0.027206106870229,0.0296770992366412
0.142,8.94731818181818,-3.480327272727273,-3.606136363636368,-0.0811,-0.0029,0.0028,9.135090839694657,-2.459999236641221,3.5247030534351147,-0.0407832061068702,-0.0272267175572519,0.0296748091603053
0.143,8.947536363636361,-3.480254545454546,-3.605772727272731,-0.0811,-0.0029,0.0028,9.134980916030536,-2.4598900763358778,3.5247396946564886,-0.0407816793893129,-0.0272473282442748,0.0296725190839694
0.144,8.947754545454542,-3.4801818181818187,-3.605409090909095,-0.0811,-0.0029,0.0028,9.134870992366412,-2.4597809160305344,3.524776335877863,-0.0407801526717557,-0.0272679389312977,0.0296702290076335
0.145,8.947972727272724,-3.4801090909090915,-3.605045454545458,-0.0811,-0.0029,0.0028,9.134761068702293,-2.4596717557251906,3.524812977099237,-0.0407786259541984,-0.0272885496183206,0.0296679389312977
0.146,8.948190909090906,-3.4800363636363643,-3.604681818181822,-0.0811,-0.0029,0.0028,9.134651145038168,-2.4595625954198472,3.524849618320611,-0.0407770992366412,-0.0273091603053435,0.0296656488549618
0.147,8.948409090909088,-3.479963636363637,-3.6043181818181855,-0.0811,-0.0029,0.0028,9.134541221374048,-2.459453435114504,3.5248862595419848,-0.0407755725190839,-0.0273297709923664,0.0296633587786259
0.148,8.94862727272727,-3.47989090909091,-3.603954545454549,-0.0811,-0.0029,0.0028,9.134431297709924,-2.45934427480916,3.524922900763359,-0.0407740458015267,-0.0273503816793893,0.02966106870229
0.149,8.948845454545452,-3.4798181818181826,-3.603590909090913,-0.0811,-0.0029,0.0028,9.134321374045802,-2.4592351145038167,3.524959541984733,-0.0407725190839694,-0.0273709923664122,0.0296587786259542
0.15,8.949063636363633,-3.479745454545456,-3.6032272727272767,-0.0811,-0.0029,0.0028,9.13421145038168,-2.4591259541984734,3.524996183206107,-0.0407709923664122,-0.0273916030534351,0.0296564885496183
0.151,8.949281818181815,-3.479672727272728,-3.60286363636364,-0.0811,-0.0029,0.0028,9.134101526717558,-2.459016793893129,3.525032824427481,-0.0407694656488549,-0.027412213740458,0.0296541984732824
0.152,8.949499999999997,-3.4796000000000005,-3.602500000000004,-0.0811,-0.0029,0.0028,9.133991603053436,-2.458907633587786,3.5250694656488557,-0.0407679389312977,-0.0274328244274809,0.0296519083969465
0.153,8.949718181818179,-3.479527272727273,-3.6021363636363675,-0.0811,-0.0029,0.0028,9.133881679389312,-2.458798473282443,3.525106106870229,-0.0407664122137404,-0.0274534351145038,0.0296496183206106
0.154,8.949936363636361,-3.479454545454546,-3.601772727272732,-0.0811,-0.0029,0.0028,9.13377175572519,-2.458689312977099,3.525142748091603,-0.0407648854961832,-0.0274740458015267,0.0296473282442748
0.155,8.950154545454543,-3.479381818181819,-3.601409090909095,-0.0811,-0.0029,0.0028,9.133661832061067,-2.458580152671756,3.525179389312977,-0.0407633587786259,-0.0274946564885496,0.0296450381679389
0.156,8.950372727272724,-3.479309090909092,-3.6010454545454587,-0.0811,-0.0029,0.0028,9.133551908396948,-2.458470992366412,3.5252160305343514,-0.0407618320610687,-0.0275152671755725,0.029642748091603
0.157,8.950590909090906,-3.4792363636363643,-3.600681818181822,-0.0811,-0.0029,0.0028,9.133441984732825,-2.4583618320610685,3.5252526717557253,-0.0407603053435114,-0.0275358778625954,0.0296404580152671
0.158,8.950809090909088,-3.479163636363637,-3.600318181818186,-0.0811,-0.0029,0.0028,9.133332061068703,-2.458252671755725,3.5252893129770992,-0.0407587786259542,-0.0275564885496183,0.0296381679389312
0.159,8.95102727272727,-3.47909090909091,-3.5999545454545494,-0.0811,-0.0029,0.0028,9.13322213740458,-2.4581435114503813,3.5253259541984736,-0.0407572519083969,-0.0275770992366412,0.0296358778625954
0.16,8.951245454545452,-3.4790181818181827,-3.599590909090913,-0.0811,-0.0029,0.0028,9.13311221374046,-2.458034351145038,3.5253625954198475,-0.0407557251908397,-0.0275977099236641,0.0296335877862595
0.161,8.951463636363634,-3.478945454545455,-3.5992272727272767,-0.0811,-0.0029,0.0028,9.133002290076336,-2.457925190839694,3.525399236641221,-0.0407541984732824,-0.027618320610687,0.0296312977099236
0.162,8.951681818181815,-3.478872727272728,-3.59886363636364,-0.0811,-0.0029,0.0028,9.132892366412214,-2.457816030534351,3.5254358778625954,-0.0407526717557251,-0.0276389312977099,0.0296290076335877
0.163,8.951899999999997,-3.478800000000001,-3.598500000000004,-0.0811,-0.0029,0.0028,9.132782442748091,-2.4577068702290075,3.5254725190839697,-0.0407511450381679,-0.0276595419847328,0.0296267175572519
0.164,8.952118181818179,-3.4787272727272733,-3.5981363636363675,-0.0811,-0.0029,0.0028,9.13267251908397,-2.457597709923664,3.525509160305344,-0.0407496183206106,-0.0276801526717557,0.029624427480916
0.165,8.95233636363636,-3.478654545454546,-3.597772727272732,-0.0811,-0.0029,0.0028,9.132562595419849,-2.4574885496183203,3.5255458015267176,-0.0407480916030534,-0.0277007633587786,0.0296221374045801
0.166,8.952554545454543,-3.478581818181819,-3.5974090909090948,-0.0811,-0.0029,0.0028,9.132452671755726,-2.457379389312977,3.525582442748092,-0.0407465648854961,-0.0277213740458015,0.0296198473282442
0.167,8.952772727272723,-3.478509090909092,-3.5970454545454587,-0.0811,-0.0029,0.0028,9.132342748091604,-2.4572702290076336,3.525619083969466,-0.0407450381679389,-0.0277419847328244,0.0296175572519083
0.168,8.952990909090905,-3.4784363636363644,-3.596681818181822,-0.0811,-0.0029,0.0028,9.13223282442748,-2.45716106870229,3.52565572519084,-0.0407435114503816,-0.0277625954198473,0.0296152671755725
0.169,8.953209090909088,-3.478363636363637,-3.596318181818186,-0.0811,-0.0029,0.0028,9.13212290076336,-2.4570519083969464,3.5256923664122137,-0.0407419847328244,-0.0277832061068702,0.0296129770992366
0.17,8.95342727272727,-3.47829090909091,-3.5959545454545494,-0.0811,-0.0029,0.0028,9.132012977099237,-2.456942748091603,3.525729007633588,-0.0407404580152671,-0.0278038167938931,0.0296106870229007
0.171,8.953645454545452,-3.4782181818181823,-3.5955909090909133,-0.0811,-0.0029,0.0028,9.131903053435115,-2.4568335877862597,3.525765648854962,-0.0407389312977099,-0.027824427480916,0.0296083969465648
0.172,8.953863636363634,-3.478145454545455,-3.5952272727272767,-0.0811,-0.0029,0.0028,9.131793129770992,-2.456724427480916,3.525802290076336,-0.0407374045801526,-0.0278450381679389,0.029606106870229
0.173,8.954081818181814,-3.478072727272728,-3.5948636363636406,-0.0811,-0.0029,0.0028,9.131683206106873,-2.4566152671755725,3.5258389312977103,-0.0407358778625954,-0.0278656488549618,0.0296038167938931
0.174,8.954299999999996,-3.4780000000000006,-3.594500000000004,-0.0811,-0.0029,0.0028,9.131573282442748,-2.4565061068702287,3.525875572519084,-0.0407343511450381,-0.0278862595419847,0.0296015267175572
0.175,8.954518181818178,-3.477927272727273,-3.594136363636368,-0.0811,-0.0029,0.0028,9.131463358778626,-2.4563969465648854,3.525912213740458,-0.0407328244274809,-0.0279068702290076,0.0295992366412213
0.176,8.95473636363636,-3.477854545454546,-3.593772727272732,-0.0811,-0.0029,0.0028,9.131353435114503,-2.456287786259542,3.525948854961832,-0.0407312977099236,-0.0279274809160305,0.0295969465648855
0.177,8.954954545454543,-3.477781818181819,-3.593409090909095,-0.0811,-0.0029,0.0028,9.131243511450382,-2.4561786259541982,3.5259854961832064,-0.0407297709923664,-0.0279480916030534,0.0295946564885496
0.178,8.955172727272725,-3.477709090909092,-3.5930454545454587,-0.0811,-0.0029,0.0028,9.13113358778626,-2.456069465648855,3.5260221374045804,-0.0407282442748091,-0.0279687022900763,0.0295923664122137
0.179,8.955390909090905,-3.4776363636363645,-3.5926818181818225,-0.0811,-0.0029,0.0028,9.131023664122138,-2.4559603053435115,3.5260587786259543,-0.0407267175572519,-0.0279893129770992,0.0295900763358778
0.18,8.955609090909087,-3.4775636363636373,-3.592318181818186,-0.0811,-0.0029,0.0028,9.130913740458016,-2.455851145038168,3.526095419847328,-0.0407251908396946,-0.0280099236641221,0.0295877862595419
0.181,8.95582727272727,-3.4774909090909096,-3.59195454545455,-0.0811,-0.0029,0.0028,9.130803816793891,-2.4557419847328243,3.5261320610687026,-0.0407236641221374,-0.028030534351145,0.0295854961832061
0.182,8.956045454545452,-3.4774181818181824,-3.5915909090909133,-0.0811,-0.0029,0.0028,9.130693893129772,-2.455632824427481,3.5261687022900765,-0.0407221374045801,-0.0280511450381679,0.0295832061068702
0.183,8.956263636363634,-3.477345454545455,-3.591227272727277,-0.0811,-0.0029,0.0028,9.130583969465649,-2.455523664122137,3.5262053435114504,-0.0407206106870229,-0.0280717557251908,0.0295809160305343
0.184,8.956481818181816,-3.477272727272728,-3.5908636363636406,-0.0811,-0.0029,0.0028,9.130474045801527,-2.455414503816794,3.526241984732825,-0.0407190839694656,-0.0280923664122137,0.0295786259541984
0.185,8.956699999999996,-3.4772000000000007,-3.5905000000000045,-0.0811,-0.0029,0.0028,9.130364122137404,-2.4553053435114505,3.5262786259541987,-0.0407175572519084,-0.0281129770992366,0.0295763358778625
0.186,8.956918181818178,-3.477127272727273,-3.590136363636368,-0.0811,-0.0029,0.0028,9.130254198473285,-2.4551961832061067,3.5263152671755726,-0.0407160305343511,-0.0281335877862595,0.0295740458015267
0.187,8.95713636363636,-3.4770545454545463,-3.589772727272732,-0.0811,-0.0029,0.0028,9.13014427480916,-2.4550870229007637,3.5263519083969466,-0.0407145038167938,-0.0281541984732824,0.0295717557251908
0.188,8.957354545454542,-3.476981818181819,-3.589409090909095,-0.0811,-0.0029,0.0028,9.13003435114504,-2.4549778625954195,3.526388549618321,-0.0407129770992366,-0.0281748091603053,0.0295694656488549
0.189,8.957572727272725,-3.476909090909092,-3.589045454545459,-0.0811,-0.0029,0.0028,9.129924427480915,-2.454868702290076,3.526425190839695,-0.0407114503816793,-0.0281954198473282,0.029567175572519
0.19,8.957790909090907,-3.4768363636363646,-3.5886818181818225,-0.0811,-0.0029,0.0028,9.129814503816794,-2.454759541984733,3.526461832061069,-0.0407099236641221,-0.0282160305343511,0.0295648854961832
0.191,8.958009090909087,-3.476763636363637,-3.5883181818181864,-0.0811,-0.0029,0.0028,9.129704580152673,-2.454650381679389,3.5264984732824427,-0.0407083969465648,-0.028236641221374,0.0295625954198473
0.192,8.95822727272727,-3.4766909090909097,-3.58795454545455,-0.0811,-0.0029,0.0028,9.12959465648855,-2.4545412213740456,3.526535114503817,-0.0407068702290076,-0.0282572519083969,0.0295603053435114
0.193,8.958445454545451,-3.4766181818181825,-3.5875909090909133,-0.0811,-0.0029,0.0028,9.129484732824428,-2.4544320610687023,3.526571755725191,-0.0407053435114503,-0.0282778625954198,0.0295580152671755
0.194,8.958663636363633,-3.4765454545454557,-3.587227272727277,-0.0811,-0.0029,0.0028,9.129374809160304,-2.4543229007633585,3.526608396946565,-0.0407038167938931,-0.0282984732824427,0.0295557251908396
0.195,8.958881818181816,-3.476472727272728,-3.5868636363636406,-0.0811,-0.0029,0.0028,9.129264885496184,-2.454213740458015,3.5266450381679397,-0.0407022900763358,-0.0283190839694656,0.0295534351145038
0.196,8.959099999999998,-3.476400000000001,-3.5865000000000045,-0.0811,-0.0029,0.0028,9.12915496183206,-2.454104580152672,3.526681679389313,-0.0407007633587786,-0.0283396946564885,0.0295511450381679
0.197,8.958878461538463,-3.4766199999999974,-3.586426153846155,-0.0811107692307691,-0.0028938461538462,0.0028199999999997,9.12904503816794,-2.453995419847328,3.526718320610687,-0.0406992366412213,-0.0283603053435114,0.029548854961832
0.198,8.958656923076925,-3.476839999999997,-3.5863523076923087,-0.0811215384615383,-0.0028876923076923,0.0028399999999997,9.128935114503816,-2.4538862595419846,3.526754961832061,-0.0406977099236641,-0.0283809160305343,0.0295465648854961
0.199,8.958435384615386,-3.477059999999997,-3.586278461538462,-0.0811323076923075,-0.0028815384615385,0.0028599999999997,9.128825190839695,-2.453777099236641,3.5267916030534354,-0.0406961832061068,-0.0284015267175572,0.0295442748091603
0.2,8.958213846153848,-3.4772799999999973,-3.586204615384616,-0.0811430769230768,-0.0028753846153846,0.0028799999999997,9.128715267175572,-2.4536679389312974,3.5268282442748093,-0.0406946564885496,-0.0284221374045801,0.0295419847328244
0.201,8.95799230769231,-3.4774999999999974,-3.58613076923077,-0.081153846153846,-0.0028692307692308,0.0028999999999997,9.12860534351145,-2.453558778625954,3.5268648854961837,-0.0406931297709923,-0.028442748091603,0.0295396946564885
0.202,8.957770769230772,-3.477719999999997,-3.586056923076924,-0.0811646153846152,-0.0028630769230769,0.0029199999999997,9.12849541984733,-2.4534496183206107,3.526901526717557,-0.0406916030534351,-0.0284633587786259,0.0295374045801526
0.203,8.957549230769233,-3.477939999999997,-3.585983076923078,-0.0811753846153845,-0.0028569230769231,0.0029399999999997,9.128385496183206,-2.453340458015267,3.526938167938932,-0.0406900763358778,-0.0284839694656488,0.0295351145038167
0.204,8.957327692307695,-3.4781599999999973,-3.585909230769232,-0.0811861538461537,-0.0028507692307693,0.0029599999999997,9.128275572519083,-2.4532312977099235,3.526974809160305,-0.0406885496183206,-0.0285045801526717,0.0295328244274809
0.205,8.957106153846157,-3.4783799999999974,-3.5858353846153856,-0.0811969230769229,-0.0028446153846154,0.0029799999999997,9.128165648854962,-2.45312213740458,3.5270114503816794,-0.0406870229007633,-0.0285251908396946,0.029530534351145
0.206,8.956884615384617,-3.478599999999997,-3.58576153846154,-0.0812076923076921,-0.0028384615384616,0.0029999999999997,9.12805572519084,-2.4530129770992364,3.5270480916030538,-0.0406854961832061,-0.0285458015267175,0.0295282442748091
0.207,8.956663076923078,-3.478819999999997,-3.585687692307693,-0.0812184615384614,-0.0028323076923077,0.0030199999999997,9.127945801526716,-2.452903816793893,3.527084732824428,-0.0406839694656488,-0.0285664122137404,0.0295259541984732
0.208,8.95644153846154,-3.479039999999997,-3.585613846153847,-0.0812292307692306,-0.0028261538461539,0.0030399999999997,9.127835877862596,-2.4527946564885497,3.5271213740458016,-0.0406824427480916,-0.0285870229007633,0.0295236641221374
0.209,8.956220000000002,-3.4792599999999974,-3.585540000000001,-0.0812399999999998,-0.00282,0.0030599999999997,9.127725954198471,-2.452685496183206,3.5271580152671755,-0.0406809160305343,-0.0286076335877862,0.0295213740458015
0.21,8.955998461538464,-3.479479999999997,-3.5854661538461547,-0.0812507692307691,-0.0028138461538462,0.0030799999999997,9.127616030534352,-2.4525763358778625,3.52719465648855,-0.0406793893129771,-0.0286282442748091,0.0295190839694656
0.211,8.955776923076925,-3.4796999999999976,-3.5853923076923087,-0.0812615384615383,-0.0028076923076923,0.0030999999999997,9.127506106870229,-2.452467175572519,3.527231297709924,-0.0406778625954198,-0.028648854961832,0.0295167938931297
0.212,8.955555384615387,-3.479919999999997,-3.5853184615384626,-0.0812723076923075,-0.0028015384615385,0.0031199999999997,9.127396183206107,-2.452358015267176,3.5272679389312978,-0.0406763358778625,-0.0286694656488549,0.0295145038167938
0.213,8.955333846153849,-3.4801399999999973,-3.5852446153846165,-0.0812830769230768,-0.0027953846153846,0.0031399999999997,9.127286259541984,-2.452248854961832,3.527304580152672,-0.0406748091603053,-0.0286900763358778,0.029512213740458
0.214,8.95511230769231,-3.480359999999997,-3.58517076923077,-0.081293846153846,-0.0027892307692308,0.0031599999999997,9.127176335877865,-2.4521396946564886,3.527341221374046,-0.040673282442748,-0.0287106870229007,0.0295099236641221
0.215,8.95489076923077,-3.4805799999999976,-3.585096923076924,-0.0813046153846152,-0.0027830769230769,0.0031799999999997,9.12706641221374,-2.452030534351145,3.52737786259542,-0.0406717557251908,-0.0287312977099236,0.0295076335877862
0.216,8.954669230769232,-3.480799999999997,-3.5850230769230778,-0.0813153846153845,-0.0027769230769231,0.0031999999999997,9.126956488549618,-2.451921374045801,3.527414503816794,-0.0406702290076335,-0.0287519083969465,0.0295053435114503
0.217,8.954447692307694,-3.4810199999999973,-3.584949230769232,-0.0813261538461537,-0.0027707692307693,0.0032199999999997,9.126846564885495,-2.451812213740458,3.5274511450381683,-0.0406687022900763,-0.0287725190839694,0.0295030534351145
0.218,8.954226153846156,-3.481239999999997,-3.5848753846153856,-0.0813369230769229,-0.0027646153846154,0.0032399999999997,9.126736641221374,-2.4517030534351143,3.527487786259542,-0.040667175572519,-0.0287931297709923,0.0295007633587786
0.219,8.954004615384617,-3.4814599999999976,-3.5848015384615395,-0.0813476923076921,-0.0027584615384616,0.0032599999999997,9.126626717557253,-2.451593893129771,3.527524427480916,-0.0406656488549618,-0.0288137404580152,0.0294984732824427
0.22,8.953783076923079,-3.481679999999997,-3.5847276923076934,-0.0813584615384614,-0.0027523076923077,0.0032799999999997,9.12651679389313,-2.451484732824428,3.52756106870229,-0.0406641221374045,-0.0288343511450381,0.0294961832061068
0.221,8.95356153846154,-3.4818999999999973,-3.584653846153847,-0.0813692307692306,-0.0027461538461539,0.0032999999999997,9.126406870229008,-2.451375572519084,3.5275977099236644,-0.0406625954198473,-0.028854961832061,0.0294938931297709
0.222,8.953340000000003,-3.482119999999997,-3.5845800000000008,-0.0813799999999998,-0.00274,0.0033199999999997,9.126296946564883,-2.4512664122137404,3.5276343511450383,-0.04066106870229,-0.0288755725190839,0.0294916030534351
0.223,8.953118461538462,-3.482339999999997,-3.5845061538461547,-0.0813907692307691,-0.0027338461538462,0.0033399999999997,9.126187022900764,-2.4511572519083966,3.527670992366412,-0.0406595419847328,-0.0288961832061068,0.0294893129770992
0.224,8.952896923076924,-3.4825599999999977,-3.5844323076923086,-0.0814015384615383,-0.0027276923076923,0.0033599999999997,9.12607709923664,-2.4510480916030533,3.5277076335877866,-0.0406580152671755,-0.0289167938931297,0.0294870229007633
0.225,8.952675384615386,-3.4827799999999973,-3.5843584615384625,-0.0814123076923075,-0.0027215384615385,0.0033799999999997,9.12596717557252,-2.45093893129771,3.5277442748091605,-0.0406564885496183,-0.0289374045801526,0.0294847328244274
0.226,8.952453846153848,-3.482999999999997,-3.5842846153846164,-0.0814230769230768,-0.0027153846153846,0.0033999999999997,9.125857251908398,-2.450829770992366,3.5277809160305345,-0.040654961832061,-0.0289580152671755,0.0294824427480916
0.227,8.95223230769231,-3.483219999999997,-3.5842107692307703,-0.081433846153846,-0.0027092307692308,0.0034199999999997,9.125747328244277,-2.4507206106870227,3.5278175572519084,-0.0406534351145038,-0.0289786259541984,0.0294801526717557
0.228,8.952010769230771,-3.4834399999999976,-3.584136923076924,-0.0814446153846152,-0.0027030769230769,0.0034399999999997,9.125637404580154,-2.4506114503816794,3.5278541984732827,-0.0406519083969465,-0.0289992366412213,0.0294778625954198
0.229,8.951789230769233,-3.4836599999999973,-3.5840630769230777,-0.0814553846153845,-0.0026969230769231,0.0034599999999997,9.12552748091603,-2.450502290076336,3.5278908396946567,-0.0406503816793893,-0.0290198473282442,0.0294755725190839
0.23,8.951567692307695,-3.483879999999997,-3.583989230769232,-0.0814661538461537,-0.0026907692307692,0.0034799999999997,9.12541755725191,-2.450393129770992,3.5279274809160306,-0.040648854961832,-0.0290404580152671,0.029473282442748
0.231,8.951346153846156,-3.484099999999997,-3.583915384615385,-0.0814769230769229,-0.0026846153846154,0.0034999999999997,9.125307633587786,-2.450283969465649,3.5279641221374045,-0.0406473282442748,-0.02906106870229,0.0294709923664122
0.232,8.951124615384616,-3.4843199999999976,-3.5838415384615394,-0.0814876923076921,-0.0026784615384616,0.0035199999999997,9.125197709923665,-2.450174809160305,3.528000763358779,-0.0406458015267175,-0.0290816793893129,0.0294687022900763
0.233,8.950903076923078,-3.4845399999999978,-3.5837676923076933,-0.0814984615384614,-0.0026723076923077,0.0035399999999997,9.125087786259542,-2.4500656488549617,3.528037404580153,-0.0406442748091603,-0.0291022900763358,0.0294664122137404
0.234,8.95068153846154,-3.4847599999999974,-3.5836938461538472,-0.0815092307692306,-0.0026661538461539,0.0035599999999997,9.12497786259542,-2.4499564885496183,3.5280740458015267,-0.040642748091603,-0.0291229007633587,0.0294641221374045
0.235,8.950460000000001,-3.484979999999997,-3.5836200000000007,-0.0815199999999998,-0.00266,0.0035799999999997,9.124867938931295,-2.4498473282442745,3.528110687022901,-0.0406412213740458,-0.0291435114503816,0.0294618320610687
0.236,8.950238461538463,-3.4851999999999976,-3.5835461538461546,-0.0815307692307691,-0.0026538461538462,0.0035999999999997,9.124758015267176,-2.449738167938931,3.528147328244275,-0.0406396946564885,-0.0291641221374045,0.0294595419847328
0.237,8.950016923076925,-3.4854199999999977,-3.5834723076923085,-0.0815415384615383,-0.0026476923076923,0.0036199999999997,9.124648091603053,-2.449629007633588,3.528183969465649,-0.0406381679389313,-0.0291847328244274,0.0294572519083969
0.238,8.949795384615387,-3.4856399999999974,-3.5833984615384624,-0.0815523076923075,-0.0026415384615385,0.0036399999999997,9.124538167938931,-2.449519847328244,3.528220610687023,-0.040636641221374,-0.0292053435114503,0.029454961832061
0.239,8.949573846153848,-3.485859999999997,-3.5833246153846163,-0.0815630769230768,-0.0026353846153846,0.0036599999999997,9.12442824427481,-2.4494106870229007,3.528257251908397,-0.0406351145038167,-0.0292259541984732,0.0294526717557251
0.24,8.94935230769231,-3.4860799999999976,-3.5832507692307702,-0.081573846153846,-0.0026292307692308,0.0036799999999997,9.124318320610689,-2.4493015267175573,3.528293893129771,-0.0406335877862595,-0.0292465648854961,0.0294503816793893
0.241,8.94913076923077,-3.4862999999999977,-3.583176923076924,-0.0815846153846152,-0.0026230769230769,0.0036999999999997,9.124208396946566,-2.449192366412213,3.528330534351145,-0.0406320610687022,-0.029267175572519,0.0294480916030534
0.242,8.948909230769232,-3.4865199999999974,-3.5831030769230776,-0.0815953846153845,-0.0026169230769231,0.0037199999999997,9.124098473282444,-2.44908320610687,3.528367175572519,-0.040630534351145,-0.0292877862595419,0.0294458015267175
0.243,8.948687692307693,-3.486739999999997,-3.5830292307692315,-0.0816061538461537,-0.0026107692307692,0.0037399999999997,9.12398854961832,-2.4489740458015268,3.5284038167938934,-0.0406290076335877,-0.0293083969465648,0.0294435114503816
0.244,8.948466153846155,-3.4869599999999976,-3.582955384615385,-0.0816169230769229,-0.0026046153846154,0.0037599999999997,9.123878625954198,-2.448864885496183,3.5284404580152677,-0.0406274809160305,-0.0293290076335877,0.0294412213740458
0.245,8.948244615384617,-3.4871799999999977,-3.58288153846154,-0.0816276923076921,-0.0025984615384616,0.0037799999999997,9.123768702290077,-2.44875572519084,3.528477099236641,-0.0406259541984732,-0.0293496183206106,0.0294389312977099
0.246,8.948023076923079,-3.487399999999998,-3.582807692307693,-0.0816384615384614,-0.0025923076923077,0.0037999999999997,9.123658778625954,-2.4486465648854963,3.528513740458016,-0.040624427480916,-0.0293702290076335,0.029436641221374
0.247,8.94780153846154,-3.487619999999997,-3.582733846153847,-0.0816492307692306,-0.0025861538461539,0.0038199999999997,9.123548854961832,-2.4485374045801525,3.528550381679389,-0.0406229007633587,-0.0293908396946564,0.0294343511450381
0.248,8.947580000000002,-3.4878399999999976,-3.582660000000001,-0.0816599999999998,-0.00258,0.0038399999999997,9.12343893129771,-2.448428244274809,3.5285870229007634,-0.0406213740458015,-0.0294114503816793,0.0294320610687022
0.249,8.947358461538464,-3.4880599999999977,-3.5825861538461545,-0.0816707692307691,-0.0025738461538462,0.0038599999999997,9.123329007633588,-2.4483190839694657,3.5286236641221373,-0.0406198473282442,-0.0294320610687022,0.0294297709923664
0.25,8.947136923076924,-3.488279999999998,-3.5825123076923084,-0.0816815384615383,-0.0025676923076923,0.0038799999999997,9.123219083969468,-2.448209923664122,3.528660305343512,-0.040618320610687,-0.0294526717557251,0.0294274809160305
0.251,8.946915384615385,-3.488499999999997,-3.5824384615384623,-0.0816923076923075,-0.0025615384615385,0.0038999999999997,9.123109160305344,-2.4481007633587786,3.5286969465648856,-0.0406167938931297,-0.029473282442748,0.0294251908396946
0.252,8.946693846153847,-3.4887199999999976,-3.5823646153846163,-0.0817030769230768,-0.0025553846153846,0.0039199999999997,9.122999236641222,-2.447991603053435,3.52873358778626,-0.0406152671755725,-0.0294938931297709,0.0294229007633587
0.253,8.946472307692309,-3.4889399999999977,-3.58229076923077,-0.081713846153846,-0.0025492307692308,0.0039399999999997,9.1228893129771,-2.4478824427480914,3.528770229007633,-0.0406137404580152,-0.0295145038167938,0.0294206106870229
0.254,8.94625076923077,-3.489159999999998,-3.582216923076924,-0.0817246153846152,-0.0025430769230769,0.0039599999999997,9.122779389312978,-2.447773282442748,3.528806870229008,-0.040612213740458,-0.0295351145038167,0.029418320610687
0.255,8.946029230769232,-3.489379999999997,-3.582143076923078,-0.0817353846153845,-0.0025369230769231,0.0039799999999997,9.122669465648857,-2.4476641221374047,3.5288435114503818,-0.0406106870229007,-0.0295557251908396,0.0294160305343511
0.256,8.945807692307694,-3.4895999999999976,-3.5820692307692314,-0.0817461538461537,-0.0025307692307692,0.0039999999999997,9.122559541984732,-2.447554961832061,3.528880152671756,-0.0406091603053435,-0.0295763358778625,0.0294137404580152
0.257,8.945586153846156,-3.4898199999999977,-3.5819953846153854,-0.0817569230769229,-0.0025246153846154,0.0040199999999998,9.12244961832061,-2.447445801526717,3.52891679389313,-0.0406076335877862,-0.0295969465648854,0.0294114503816793
0.258,8.945364615384618,-3.490039999999998,-3.5819215384615397,-0.0817676923076922,-0.0025184615384616,0.0040399999999998,9.122339694656487,-2.4473366412213737,3.528953435114504,-0.040606106870229,-0.0296175572519083,0.0294091603053435
0.259,8.945143076923078,-3.490259999999998,-3.581847692307693,-0.0817784615384614,-0.0025123076923077,0.0040599999999998,9.122229770992366,-2.4472274809160304,3.528990076335878,-0.0406045801526717,-0.0296381679389312,0.0294068702290076
0.26,8.94492153846154,-3.4904799999999976,-3.581773846153847,-0.0817892307692306,-0.0025061538461539,0.0040799999999998,9.122119847328245,-2.447118320610687,3.529026717557252,-0.0406030534351145,-0.0296587786259541,0.0294045801526717
0.261,8.944700000000001,-3.4906999999999977,-3.581700000000001,-0.0817999999999998,-0.0025,0.0040999999999998,9.12200992366412,-2.447009160305343,3.529063358778626,-0.0406015267175572,-0.029679389312977,0.0294022900763358
0.262,8.9447,-3.4906287878787885,-3.58191818181818,-0.0818015151515151,-0.0025030303030302,0.0040848484848486,9.1219,-2.4469,3.5291,-0.0406,-0.0296999999999999,0.0294
0.263,8.9447,-3.490557575757576,-3.5821363636363617,-0.0818030303030302,-0.0025060606060605,0.0040696969696971,9.122046564885496,-2.446863358778626,3.529063358778626,-0.0406083969465648,-0.0297091603053435,0.0294030534351145
0.264,8.9447,-3.4904863636363643,-3.582354545454544,-0.0818045454545454,-0.0025090909090908,0.0040545454545456,9.122193129770992,-2.446826717557252,3.529026717557252,-0.0406167938931297,-0.029718320610687,0.029406106870229
0.265,8.9447,-3.490415151515152,-3.582572727272725,-0.0818060606060605,-0.0025121212121211,0.004039393939394,9.122339694656487,-2.4467900763358776,3.528990076335878,-0.0406251908396946,-0.0297274809160305,0.0294091603053435
0.266,8.9447,-3.49034393939394,-3.582790909090907,-0.0818075757575757,-0.0025151515151514,0.0040242424242425,9.122486259541985,-2.446753435114504,3.528953435114504,-0.0406335877862595,-0.029736641221374,0.029412213740458
0.267,8.9447,-3.490272727272728,-3.583009090909089,-0.0818090909090908,-0.0025181818181817,0.004009090909091,9.12263282442748,-2.44671679389313,3.52891679389313,-0.0406419847328244,-0.0297458015267175,0.0294152671755725
0.268,8.9447,-3.490201515151516,-3.5832272727272705,-0.081810606060606,-0.002521212121212,0.0039939393939395,9.122779389312978,-2.4466801526717554,3.528880152671756,-0.0406503816793893,-0.029754961832061,0.029418320610687
0.269,8.9447,-3.490130303030304,-3.5834454545454526,-0.0818121212121212,-0.0025242424242423,0.003978787878788,9.122925954198474,-2.446643511450381,3.5288435114503818,-0.0406587786259541,-0.0297641221374045,0.0294213740458015
0.27,8.9447,-3.4900590909090914,-3.5836636363636343,-0.0818136363636363,-0.0025272727272726,0.0039636363636365,9.12307251908397,-2.446606870229008,3.528806870229008,-0.040667175572519,-0.029773282442748,0.029424427480916
0.271,8.9447,-3.4899878787878795,-3.583881818181816,-0.0818151515151515,-0.0025303030303029,0.003948484848485,9.123219083969463,-2.4465702290076337,3.528770229007634,-0.0406755725190839,-0.0297824427480916,0.0294274809160305
0.272,8.9447,-3.4899166666666672,-3.5840999999999976,-0.0818166666666666,-0.0025333333333333,0.0039333333333334,9.123365648854962,-2.4465335877862597,3.52873358778626,-0.0406839694656488,-0.0297916030534351,0.029430534351145
0.273,8.9447,-3.489845454545456,-3.58431818181818,-0.0818181818181818,-0.0025363636363636,0.0039181818181819,9.123512213740458,-2.4464969465648854,3.5286969465648856,-0.0406923664122137,-0.0298007633587786,0.0294335877862595
0.274,8.9447,-3.489774242424243,-3.5845363636363614,-0.0818196969696969,-0.0025393939393939,0.0039030303030304,9.123658778625954,-2.4464603053435114,3.528660305343512,-0.0407007633587786,-0.0298099236641221,0.029436641221374
0.275,8.9447,-3.489703030303031,-3.584754545454543,-0.0818212121212121,-0.0025424242424242,0.0038878787878789,9.123805343511451,-2.446423664122137,3.5286236641221373,-0.0407091603053435,-0.0298190839694656,0.0294396946564885
0.276,8.9447,-3.489631818181819,-3.584972727272725,-0.0818227272727272,-0.0025454545454545,0.0038727272727274,9.123951908396949,-2.446387022900763,3.5285870229007634,-0.0407175572519083,-0.0298282442748091,0.029442748091603
0.277,8.9447,-3.4895606060606066,-3.585190909090907,-0.0818242424242424,-0.0025484848484848,0.0038575757575759,9.124098473282444,-2.446350381679389,3.528550381679389,-0.0407259541984732,-0.0298374045801526,0.0294458015267175
0.278,8.9447,-3.4894893939393947,-3.5854090909090885,-0.0818257575757575,-0.0025515151515151,0.0038424242424244,9.124245038167938,-2.4463137404580158,3.528513740458016,-0.0407343511450381,-0.0298465648854961,0.029448854961832
0.279,8.9447,-3.4894181818181824,-3.5856272727272707,-0.0818272727272727,-0.0025545454545454,0.0038272727272728,9.124391603053436,-2.446277099236641,3.528477099236641,-0.040742748091603,-0.0298557251908396,0.0294519083969465
0.28,8.9447,-3.4893469696969706,-3.5858454545454523,-0.0818287878787878,-0.0025575757575757,0.0038121212121213,9.124538167938931,-2.446240458015267,3.5284404580152677,-0.0407511450381679,-0.0298648854961832,0.029454961832061
0.281,8.9447,-3.4892757575757583,-3.586063636363634,-0.081830303030303,-0.002560606060606,0.0037969696969698,9.124684732824427,-2.446203816793893,3.5284038167938934,-0.0407595419847328,-0.0298740458015267,0.0294580152671755
0.282,8.9447,-3.4892045454545464,-3.586281818181816,-0.0818318181818181,-0.0025636363636363,0.0037818181818183,9.124831297709925,-2.446167175572519,3.5283671755725194,-0.0407679389312977,-0.0298832061068702,0.02946106870229
0.283,8.9447,-3.489133333333334,-3.586499999999998,-0.0818333333333333,-0.0025666666666666,0.0037666666666668,9.12497786259542,-2.446130534351145,3.528330534351145,-0.0407763358778625,-0.0298923664122137,0.0294641221374045
0.284,8.9447,-3.489062121212122,-3.5867181818181795,-0.0818348484848484,-0.0025696969696969,0.0037515151515153,9.125124427480916,-2.446093893129771,3.528293893129771,-0.0407847328244274,-0.0299015267175572,0.029467175572519
0.285,8.9447,-3.48899090909091,-3.586936363636361,-0.0818363636363636,-0.0025727272727272,0.0037363636363637,9.125270992366412,-2.446057251908397,3.528257251908397,-0.0407931297709923,-0.0299106870229007,0.0294702290076335
0.286,8.9447,-3.4889196969696976,-3.5871545454545437,-0.0818378787878787,-0.0025757575757575,0.0037212121212122,9.12541755725191,-2.4460206106870226,3.528220610687023,-0.0408015267175572,-0.0299198473282442,0.029473282442748
0.287,8.9447,-3.4888484848484858,-3.587372727272725,-0.0818393939393939,-0.0025787878787878,0.0037060606060607,9.125564122137405,-2.4459839694656487,3.528183969465649,-0.0408099236641221,-0.0299290076335877,0.0294763358778625
0.288,8.9447,-3.488777272727273,-3.5875909090909066,-0.081840909090909,-0.0025818181818181,0.0036909090909092,9.1257106870229,-2.4459473282442747,3.528147328244275,-0.040818320610687,-0.0299381679389312,0.029479389312977
0.289,8.9447,-3.4887060606060616,-3.5878090909090887,-0.0818424242424242,-0.0025848484848484,0.0036757575757577,9.125857251908396,-2.445910687022901,3.528110687022901,-0.0408267175572519,-0.0299473282442748,0.0294824427480916
0.29,8.9447,-3.4886348484848493,-3.5880272727272704,-0.0818439393939393,-0.0025878787878787,0.0036606060606062,9.126003816793894,-2.4458740458015265,3.5280740458015267,-0.0408351145038167,-0.0299564885496183,0.0294854961832061
0.291,8.9447,-3.488563636363637,-3.588245454545452,-0.0818454545454545,-0.002590909090909,0.0036454545454547,9.12615038167939,-2.4458374045801525,3.528037404580153,-0.0408435114503816,-0.0299656488549618,0.0294885496183206
0.292,8.9447,-3.488492424242425,-3.5884636363636337,-0.0818469696969696,-0.0025939393939393,0.0036303030303031,9.126296946564883,-2.4458007633587786,3.528000763358779,-0.0408519083969465,-0.0299748091603053,0.0294916030534351
0.293,8.9447,-3.488421212121213,-3.588681818181816,-0.0818484848484848,-0.0025969696969696,0.0036151515151516,9.12644351145038,-2.4457641221374047,3.527964122137405,-0.0408603053435114,-0.0299839694656488,0.0294946564885496
0.294,8.9447,-3.488350000000001,-3.588899999999997,-0.0818499999999999,-0.0025999999999999,0.0036000000000001,9.126590076335878,-2.4457274809160303,3.5279274809160306,-0.0408687022900763,-0.0299931297709923,0.0294977099236641
0.295,8.9447,-3.4882787878787886,-3.589118181818179,-0.0818515151515151,-0.0026030303030302,0.0035848484848486,9.126736641221374,-2.4456908396946564,3.5278908396946567,-0.0408770992366412,-0.0300022900763358,0.0295007633587786
0.296,8.9447,-3.488207575757577,-3.5893363636363613,-0.0818530303030302,-0.0026060606060605,0.0035696969696971,9.12688320610687,-2.4456541984732825,3.5278541984732827,-0.0408854961832061,-0.0300114503816793,0.0295038167938931
0.297,8.9447,-3.4881363636363645,-3.589554545454543,-0.0818545454545454,-0.0026090909090908,0.0035545454545456,9.127029770992367,-2.445617557251908,3.5278175572519084,-0.0408938931297709,-0.0300206106870228,0.0295068702290076
0.298,8.9447,-3.4880651515151526,-3.5897727272727247,-0.0818560606060605,-0.0026121212121211,0.0035393939393941,9.127176335877865,-2.445580916030534,3.5277809160305345,-0.0409022900763358,-0.0300297709923664,0.0295099236641221
0.299,8.9447,-3.4879939393939403,-3.589990909090907,-0.0818575757575757,-0.0026151515151514,0.0035242424242425,9.12732290076336,-2.4455442748091603,3.5277442748091605,-0.0409106870229007,-0.0300389312977099,0.0295129770992366
0.3,8.9447,-3.487922727272728,-3.5902090909090885,-0.0818590909090909,-0.0026181818181817,0.003509090909091,9.127469465648854,-2.4455076335877863,3.5277076335877866,-0.0409190839694656,-0.0300480916030534,0.0295160305343511
0.301,8.9447,-3.487851515151516,-3.59042727272727,-0.081860606060606,-0.002621212121212,0.0034939393939395,9.127616030534352,-2.445470992366412,3.527670992366412,-0.0409274809160305,-0.0300572519083969,0.0295190839694656
0.302,8.9447,-3.487780303030304,-3.590645454545452,-0.0818621212121211,-0.0026242424242423,0.003478787878788,9.127762595419847,-2.445434351145038,3.5276343511450383,-0.0409358778625954,-0.0300664122137404,0.0295221374045801
0.303,8.9447,-3.487709090909092,-3.590863636363634,-0.0818636363636363,-0.0026272727272726,0.0034636363636365,9.127909160305345,-2.445397709923664,3.5275977099236644,-0.0409442748091603,-0.0300755725190839,0.0295251908396946
0.304,8.9447,-3.48763787878788,-3.591081818181816,-0.0818651515151515,-0.0026303030303029,0.003448484848485,9.12805572519084,-2.44536106870229,3.5275610687022905,-0.0409526717557251,-0.0300847328244274,0.0295282442748091
0.305,8.9447,-3.487566666666668,-3.5912999999999973,-0.0818666666666666,-0.0026333333333332,0.0034333333333335,9.128202290076336,-2.445324427480916,3.527524427480916,-0.04096106870229,-0.0300938931297709,0.0295312977099236
0.306,8.9447,-3.4874954545454555,-3.5915181818181794,-0.0818681818181818,-0.0026363636363636,0.0034181818181819,9.128348854961832,-2.445287786259542,3.527487786259542,-0.0409694656488549,-0.0301030534351145,0.0295343511450381
0.307,8.9447,-3.487424242424243,-3.591736363636361,-0.0818696969696969,-0.0026393939393939,0.0034030303030304,9.128495419847328,-2.445251145038168,3.5274511450381683,-0.0409778625954198,-0.030112213740458,0.0295374045801526
0.308,8.9447,-3.487353030303032,-3.5919545454545427,-0.0818712121212121,-0.0026424242424242,0.0033878787878789,9.128641984732823,-2.4452145038167936,3.527414503816794,-0.0409862595419847,-0.0301213740458015,0.0295404580152671
0.309,8.9447,-3.487281818181819,-3.592172727272725,-0.0818727272727272,-0.0026454545454545,0.0033727272727274,9.12878854961832,-2.44517786259542,3.52737786259542,-0.0409946564885496,-0.030130534351145,0.0295435114503816
0.31,8.9447,-3.487210606060607,-3.5923909090909065,-0.0818742424242424,-0.0026484848484848,0.0033575757575759,9.128935114503816,-2.4451412213740458,3.527341221374046,-0.0410030534351145,-0.0301396946564885,0.0295465648854961
0.311,8.9447,-3.487139393939395,-3.592609090909088,-0.0818757575757575,-0.0026515151515151,0.0033424242424244,9.129081679389312,-2.445104580152672,3.527304580152672,-0.0410114503816793,-0.030148854961832,0.0295496183206106
0.312,8.9447,-3.487068181818183,-3.59282727272727,-0.0818772727272727,-0.0026545454545454,0.0033272727272729,9.12922824427481,-2.445067938931297,3.5272679389312978,-0.0410198473282442,-0.0301580152671755,0.0295526717557251
0.313,8.9447,-3.4869969696969707,-3.593045454545452,-0.0818787878787878,-0.0026575757575757,0.0033121212121213,9.129374809160304,-2.445031297709924,3.527231297709924,-0.0410282442748091,-0.030167175572519,0.0295557251908396
0.314,8.9447,-3.4869257575757584,-3.5932636363636337,-0.081880303030303,-0.002660606060606,0.0032969696969698,9.1295213740458,-2.4449946564885496,3.52719465648855,-0.041036641221374,-0.0301763358778625,0.0295587786259541
0.315,8.9447,-3.4868545454545465,-3.593481818181816,-0.0818818181818181,-0.0026636363636363,0.0032818181818183,9.129667938931298,-2.4449580152671757,3.5271580152671755,-0.0410450381679389,-0.0301854961832061,0.0295618320610687
0.316,8.9447,-3.4867833333333342,-3.593699999999997,-0.0818833333333333,-0.0026666666666666,0.0032666666666668,9.129814503816794,-2.4449213740458013,3.5271213740458016,-0.0410534351145038,-0.0301946564885496,0.0295648854961832
0.317,8.9447,-3.4867121212121224,-3.593918181818179,-0.0818848484848484,-0.0026696969696969,0.0032515151515153,9.12996106870229,-2.4448847328244274,3.527084732824428,-0.0410618320610687,-0.0302038167938931,0.0295679389312977
0.318,8.9447,-3.48664090909091,-3.594136363636361,-0.0818863636363636,-0.0026727272727272,0.0032363636363638,9.130107633587786,-2.444848091603053,3.5270480916030538,-0.0410702290076335,-0.0302129770992366,0.0295709923664122
0.319,8.9447,-3.486569696969698,-3.594354545454543,-0.0818878787878787,-0.0026757575757575,0.0032212121212123,9.130254198473285,-2.444811450381679,3.5270114503816794,-0.0410786259541984,-0.0302221374045801,0.0295740458015267
0.32,8.9447,-3.486498484848486,-3.5945727272727246,-0.0818893939393939,-0.0026787878787878,0.0032060606060607,9.13040076335878,-2.444774809160305,3.526974809160305,-0.0410870229007633,-0.0302312977099236,0.0295770992366412
0.321,8.9447,-3.4864272727272736,-3.5947909090909063,-0.081890909090909,-0.0026818181818181,0.0031909090909092,9.130547328244274,-2.4447381679389317,3.526938167938932,-0.0410954198473282,-0.0302404580152671,0.0295801526717557
0.322,8.9447,-3.4863560606060617,-3.595009090909088,-0.0818924242424242,-0.0026848484848484,0.0031757575757577,9.13069389312977,-2.4447015267175574,3.5269015267175576,-0.0411038167938931,-0.0302496183206106,0.0295832061068702
0.323,8.9447,-3.486284848484849,-3.59522727272727,-0.0818939393939393,-0.0026878787878787,0.0031606060606062,9.130840458015268,-2.444664885496183,3.5268648854961837,-0.041112213740458,-0.0302587786259541,0.0295862595419847
0.324,8.9447,-3.4862136363636376,-3.595445454545452,-0.0818954545454545,-0.002690909090909,0.0031454545454547,9.130987022900763,-2.444628244274809,3.5268282442748093,-0.0411206106870228,-0.0302679389312977,0.0295893129770992
0.325,8.9447,-3.4861424242424253,-3.5956636363636334,-0.0818969696969696,-0.0026939393939393,0.0031303030303032,9.13113358778626,-2.444591603053435,3.5267916030534354,-0.0411290076335877,-0.0302770992366412,0.0295923664122137
0.326,8.9447,-3.4860712121212134,-3.5958818181818155,-0.0818984848484848,-0.0026969696969696,0.0031151515151517,9.131280152671756,-2.444554961832061,3.526754961832061,-0.0411374045801526,-0.0302862595419847,0.0295954198473282
0.327,8.9447,-3.486000000000001,-3.596099999999997,-0.0818999999999999,-0.0026999999999999,0.0031000000000001,9.131426717557252,-2.444518320610687,3.526718320610687,-0.0411458015267175,-0.0302954198473282,0.0295984732824427
0.328,8.944553846153847,-3.486,-3.5961,-0.0818923076923077,-0.0026938461538462,0.0030907692307693,9.131573282442748,-2.444481679389313,3.526681679389313,-0.0411541984732824,-0.0303045801526717,0.0296015267175572
0.329,8.944407692307694,-3.486,-3.5961,-0.0818846153846154,-0.0026876923076923,0.0030815384615385,9.131719847328243,-2.444445038167939,3.5266450381679397,-0.0411625954198473,-0.0303137404580152,0.0296045801526717
0.33,8.94426153846154,-3.486,-3.5961,-0.0818769230769231,-0.0026815384615385,0.0030723076923078,9.13186641221374,-2.4444083969465646,3.526608396946565,-0.0411709923664122,-0.0303229007633587,0.0296076335877862
0.331,8.944115384615385,-3.486,-3.5961,-0.0818692307692308,-0.0026753846153846,0.003063076923077,9.132012977099237,-2.4443717557251907,3.526571755725191,-0.041179389312977,-0.0303320610687022,0.0296106870229007
0.332,8.943969230769232,-3.486,-3.5961,-0.0818615384615385,-0.0026692307692308,0.0030538461538462,9.132159541984732,-2.444335114503817,3.526535114503817,-0.0411877862595419,-0.0303412213740457,0.0296137404580152
0.333,8.943823076923078,-3.486,-3.5961,-0.0818538461538462,-0.0026630769230769,0.0030446153846154,9.132306106870228,-2.444298473282443,3.526498473282443,-0.0411961832061068,-0.0303503816793893,0.0296167938931297
0.334,8.943676923076923,-3.486,-3.5961,-0.0818461538461539,-0.0026569230769231,0.0030353846153847,9.132452671755726,-2.4442618320610685,3.526461832061069,-0.0412045801526717,-0.0303595419847328,0.0296198473282442
0.335,8.94353076923077,-3.486,-3.5961,-0.0818384615384616,-0.0026507692307693,0.0030261538461539,9.13259923664122,-2.4442251908396946,3.526425190839695,-0.0412129770992366,-0.0303687022900763,0.0296229007633587
0.336,8.943384615384616,-3.486,-3.5961,-0.0818307692307693,-0.0026446153846154,0.0030169230769231,9.132745801526715,-2.4441885496183207,3.526388549618321,-0.0412213740458015,-0.0303778625954198,0.0296259541984732
0.337,8.943238461538463,-3.486,-3.5961,-0.081823076923077,-0.0026384615384616,0.0030076923076924,9.132892366412214,-2.4441519083969463,3.5263519083969466,-0.0412297709923664,-0.0303870229007633,0.0296290076335877
0.338,8.943092307692309,-3.486,-3.5961,-0.0818153846153847,-0.0026323076923077,0.0029984615384616,9.13303893129771,-2.4441152671755724,3.5263152671755726,-0.0412381679389312,-0.0303961832061068,0.0296320610687022
0.339,8.942946153846155,-3.486,-3.5961,-0.0818076923076924,-0.0026261538461539,0.0029892307692308,9.133185496183206,-2.4440786259541984,3.5262786259541987,-0.0412465648854961,-0.0304053435114503,0.0296351145038167
0.34,8.942800000000002,-3.486,-3.5961,-0.0818000000000001,-0.00262,0.0029800000000001,9.1333320610687,-2.4440419847328245,3.526241984732825,-0.041254961832061,-0.0304145038167938,0.0296381679389312
0.341,8.942653846153847,-3.486,-3.5961,-0.0817923076923077,-0.0026138461538462,0.0029707692307693,9.1334786259542,-2.44400534351145,3.5262053435114504,-0.0412633587786259,-0.0304236641221374,0.0296412213740458
0.342,8.942507692307693,-3.486,-3.5961,-0.0817846153846154,-0.0026076923076923,0.0029615384615385,9.133625190839696,-2.443968702290076,3.5261687022900765,-0.0412717557251908,-0.0304328244274809,0.0296442748091603
0.343,8.94236153846154,-3.486,-3.5961,-0.0817769230769231,-0.0026015384615385,0.0029523076923078,9.13377175572519,-2.4439320610687023,3.5261320610687026,-0.0412801526717557,-0.0304419847328244,0.0296473282442748
0.344,8.942215384615386,-3.486,-3.5961,-0.0817692307692308,-0.0025953846153846,0.002943076923077,9.133918320610686,-2.4438954198473284,3.5260954198473287,-0.0412885496183206,-0.0304511450381679,0.0296503816793893
0.345,8.942069230769231,-3.486,-3.5961,-0.0817615384615385,-0.0025892307692308,0.0029338461538462,9.134064885496183,-2.443858778625954,3.5260587786259543,-0.0412969465648854,-0.0304603053435114,0.0296534351145038
0.346,8.941923076923079,-3.486,-3.5961,-0.0817538461538462,-0.0025830769230769,0.0029246153846154,9.13421145038168,-2.44382213740458,3.5260221374045804,-0.0413053435114503,-0.0304694656488549,0.0296564885496183
0.347,8.941776923076924,-3.486,-3.5961,-0.0817461538461539,-0.0025769230769231,0.0029153846153847,9.134358015267177,-2.443785496183206,3.5259854961832064,-0.0413137404580152,-0.0304786259541984,0.0296595419847328
0.348,8.94163076923077,-3.486,-3.5961,-0.0817384615384616,-0.0025707692307693,0.0029061538461539,9.134504580152672,-2.443748854961832,3.525948854961832,-0.0413221374045801,-0.0304877862595419,0.0296625954198473
0.349,8.941484615384617,-3.486,-3.5961,-0.0817307692307693,-0.0025646153846154,0.0028969230769231,9.134651145038168,-2.443712213740458,3.525912213740458,-0.041330534351145,-0.0304969465648854,0.0296656488549618
0.35,8.941338461538463,-3.486,-3.5961,-0.081723076923077,-0.0025584615384616,0.0028876923076924,9.134797709923664,-2.443675572519084,3.525875572519084,-0.0413389312977099,-0.030506106870229,0.0296687022900763
0.351,8.941192307692308,-3.486,-3.5961,-0.0817153846153847,-0.0025523076923077,0.0028784615384616,9.13494427480916,-2.44363893129771,3.5258389312977103,-0.0413473282442748,-0.0305152671755725,0.0296717557251908
0.352,8.941046153846155,-3.486,-3.5961,-0.0817076923076924,-0.0025461538461539,0.0028692307692308,9.135090839694657,-2.443602290076336,3.525802290076336,-0.0413557251908396,-0.030524427480916,0.0296748091603053
0.353,8.940900000000001,-3.486,-3.5961,-0.0817,-0.00254,0.0028600000000001,9.135237404580153,-2.4435656488549617,3.525765648854962,-0.0413641221374045,-0.0305335877862595,0.0296778625954198
0.354,8.940753846153846,-3.486,-3.5961,-0.0816923076923077,-0.0025338461538462,0.0028507692307693,9.135383969465648,-2.443529007633588,3.525729007633588,-0.0413725190839694,-0.030542748091603,0.0296809160305343
0.355,8.940607692307694,-3.486,-3.5961,-0.0816846153846154,-0.0025276923076923,0.0028415384615385,9.135530534351146,-2.443492366412213,3.5256923664122137,-0.0413809160305343,-0.0305519083969465,0.0296839694656488
0.356,8.94046153846154,-3.486,-3.5961,-0.0816769230769231,-0.0025215384615385,0.0028323076923077,9.13567709923664,-2.4434557251908395,3.52565572519084,-0.0413893129770992,-0.03056106870229,0.0296870229007633
0.357,8.940315384615387,-3.486,-3.5961,-0.0816692307692308,-0.0025153846153846,0.002823076923077,9.135823664122135,-2.4434190839694656,3.525619083969466,-0.0413977099236641,-0.0305702290076335,0.0296900763358778
0.358,8.940169230769232,-3.486,-3.5961,-0.0816615384615385,-0.0025092307692308,0.0028138461538462,9.135970229007633,-2.443382442748092,3.525582442748092,-0.041406106870229,-0.030579389312977,0.0296931297709923
0.359,8.940023076923078,-3.486,-3.5961,-0.0816538461538462,-0.0025030769230769,0.0028046153846154,9.13611679389313,-2.4433458015267173,3.5255458015267176,-0.0414145038167938,-0.0305885496183206,0.0296961832061068
0.36,8.939876923076925,-3.486,-3.5961,-0.0816461538461539,-0.0024969230769231,0.0027953846153847,9.136263358778626,-2.4433091603053434,3.525509160305344,-0.0414229007633587,-0.0305977099236641,0.0296992366412213
0.361,8.93973076923077,-3.486,-3.5961,-0.0816384615384616,-0.0024907692307693,0.0027861538461539,9.136409923664122,-2.443272519083969,3.5254725190839697,-0.0414312977099236,-0.0306068702290076,0.0297022900763358
0.362,8.939584615384616,-3.486,-3.5961,-0.0816307692307693,-0.0024846153846154,0.0027769230769231,9.136556488549616,-2.443235877862596,3.525435877862596,-0.0414396946564885,-0.0306160305343511,0.0297053435114503
0.363,8.939438461538463,-3.486,-3.5961,-0.081623076923077,-0.0024784615384616,0.0027676923076924,9.136703053435117,-2.443199236641221,3.525399236641221,-0.0414480916030534,-0.0306251908396946,0.0297083969465648
0.364,8.939292307692309,-3.486,-3.5961,-0.0816153846153847,-0.0024723076923077,0.0027584615384616,9.13684961832061,-2.4431625954198477,3.5253625954198475,-0.0414564885496183,-0.0306343511450381,0.0297114503816793
0.365,8.939146153846155,-3.486,-3.5961,-0.0816076923076924,-0.0024661538461539,0.0027492307692308,9.136996183206106,-2.4431259541984733,3.5253259541984736,-0.0414648854961832,-0.0306435114503816,0.0297145038167938
0.366,8.939000000000002,-3.486,-3.5961,-0.0816,-0.00246,0.0027400000000001,9.137142748091604,-2.443089312977099,3.5252893129770992,-0.041473282442748,-0.0306526717557251,0.0297175572519083
0.367,8.938853846153847,-3.486,-3.5961,-0.0815923076923077,-0.0024538461538462,0.0027307692307693,9.1372893129771,-2.443052671755725,3.5252526717557253,-0.0414816793893129,-0.0306618320610686,0.0297206106870229
0.368,8.938707692307693,-3.486,-3.5961,-0.0815846153846154,-0.0024476923076923,0.0027215384615385,9.137435877862597,-2.443016030534351,3.5252160305343514,-0.0414900763358778,-0.0306709923664122,0.0297236641221374
0.369,8.93856153846154,-3.486,-3.5961,-0.0815769230769231,-0.0024415384615385,0.0027123076923077,9.13758244274809,-2.442979389312977,3.525179389312977,-0.0414984732824427,-0.0306801526717557,0.0297267175572519
0.37,8.938415384615386,-3.486,-3.5961,-0.0815692307692308,-0.0024353846153846,0.002703076923077,9.137729007633588,-2.442942748091603,3.525142748091603,-0.0415068702290076,-0.0306893129770992,0.0297297709923664
0.371,8.938269230769231,-3.486,-3.5961,-0.0815615384615385,-0.0024292307692308,0.0026938461538462,9.137875572519084,-2.442906106870229,3.525106106870229,-0.0415152671755725,-0.0306984732824427,0.0297328244274809
0.372,8.938123076923079,-3.486,-3.5961,-0.0815538461538462,-0.0024230769230769,0.0026846153846154,9.13802213740458,-2.442869465648855,3.5250694656488557,-0.0415236641221374,-0.0307076335877862,0.0297358778625954
0.373,8.937976923076924,-3.486,-3.5961,-0.0815461538461539,-0.0024169230769231,0.0026753846153847,9.138168702290075,-2.442832824427481,3.5250328244274813,-0.0415320610687022,-0.0307167938931297,0.0297389312977099
0.374,8.937830769230771,-3.486,-3.5961,-0.0815384615384616,-0.0024107692307692,0.0026661538461539,9.138315267175573,-2.4427961832061067,3.524996183206107,-0.0415404580152671,-0.0307259541984732,0.0297419847328244
0.375,8.937684615384617,-3.486,-3.5961,-0.0815307692307693,-0.0024046153846154,0.0026569230769231,9.138461832061068,-2.4427595419847328,3.524959541984733,-0.041548854961832,-0.0307351145038167,0.0297450381679389
0.376,8.937538461538463,-3.486,-3.5961,-0.081523076923077,-0.0023984615384616,0.0026476923076924,9.138608396946564,-2.442722900763359,3.524922900763359,-0.0415572519083969,-0.0307442748091603,0.0297480916030534
0.377,8.93739230769231,-3.486,-3.5961,-0.0815153846153847,-0.0023923076923077,0.0026384615384616,9.138754961832062,-2.4426862595419845,3.5248862595419848,-0.0415656488549618,-0.0307534351145038,0.0297511450381679
0.378,8.937246153846155,-3.486,-3.5961,-0.0815076923076923,-0.0023861538461539,0.0026292307692308,9.138901526717556,-2.4426496183206106,3.524849618320611,-0.0415740458015267,-0.0307625954198473,0.0297541984732824
0.379,8.937100000000001,-3.486,-3.5961,-0.0815,-0.00238,0.00262,9.139048091603051,-2.4426129770992366,3.524812977099237,-0.0415824427480916,-0.0307717557251908,0.0297572519083969
0.38,8.936953846153848,-3.486,-3.5961,-0.0814923076923077,-0.0023738461538462,0.0026107692307693,9.139194656488549,-2.4425763358778627,3.524776335877863,-0.0415908396946564,-0.0307809160305343,0.0297603053435114
0.381,8.936807692307694,-3.486,-3.5961,-0.0814846153846154,-0.0023676923076923,0.0026015384615385,9.139341221374046,-2.4425396946564883,3.5247396946564886,-0.0415992366412213,-0.0307900763358778,0.0297633587786259
0.382,8.93666153846154,-3.486,-3.5961,-0.0814769230769231,-0.0023615384615385,0.0025923076923077,9.139487786259542,-2.4425030534351144,3.5247030534351147,-0.0416076335877862,-0.0307992366412213,0.0297664122137404
0.383,8.936515384615387,-3.486,-3.5961,-0.0814692307692308,-0.0023553846153846,0.002583076923077,9.139634351145038,-2.4424664122137405,3.5246664122137408,-0.0416160305343511,-0.0308083969465648,0.0297694656488549
0.384,8.936369230769232,-3.486,-3.5961,-0.0814615384615385,-0.0023492307692308,0.0025738461538462,9.139780916030531,-2.4424297709923666,3.524629770992367,-0.041624427480916,-0.0308175572519083,0.0297725190839694
0.385,8.936223076923078,-3.486,-3.5961,-0.0814538461538462,-0.0023430769230769,0.0025646153846154,9.13992748091603,-2.442393129770992,3.5245931297709925,-0.0416328244274809,-0.0308267175572519,0.0297755725190839
0.386,8.936076923076925,-3.486,-3.5961,-0.0814461538461539,-0.0023369230769231,0.0025553846153847,9.140074045801526,-2.4423564885496183,3.5245564885496186,-0.0416412213740457,-0.0308358778625954,0.0297786259541984
0.387,8.93593076923077,-3.486,-3.5961,-0.0814384615384616,-0.0023307692307692,0.0025461538461539,9.140220610687022,-2.4423198473282444,3.5245198473282446,-0.0416496183206106,-0.0308450381679389,0.0297816793893129
0.388,8.935784615384616,-3.486,-3.5961,-0.0814307692307693,-0.0023246153846154,0.0025369230769231,9.14036717557252,-2.44228320610687,3.5244832061068703,-0.0416580152671755,-0.0308541984732824,0.0297847328244274
0.389,8.935638461538463,-3.486,-3.5961,-0.081423076923077,-0.0023184615384616,0.0025276923076924,9.140513740458015,-2.442246564885496,3.5244465648854963,-0.0416664122137404,-0.0308633587786259,0.0297877862595419
0.39,8.935492307692309,-3.486,-3.5961,-0.0814153846153847,-0.0023123076923077,0.0025184615384616,9.140660305343513,-2.442209923664122,3.5244099236641224,-0.0416748091603053,-0.0308725190839694,0.0297908396946564
0.391,8.935346153846154,-3.486,-3.5961,-0.0814076923076923,-0.0023061538461539,0.0025092307692308,9.140806870229008,-2.442173282442748,3.5243732824427485,-0.0416832061068702,-0.0308816793893129,0.0297938931297709
0.392,8.935200000000002,-3.486,-3.5961,-0.0814,-0.0023,0.0025,9.140953435114504,-2.442136641221374,3.524336641221374,-0.0416916030534351,-0.0308908396946564,0.0297969465648854
0.393,8.935272307692307,-3.485926153846155,-3.596173846153845,-0.0814046153846153,-0.0022953846153846,0.0024938461538462,9.1411,-2.4421,3.5243,-0.0416999999999999,-0.0308999999999999,0.0297999999999999
0.394,8.935344615384615,-3.4858523076923085,-3.596247692307692,-0.0814092307692307,-0.0022907692307692,0.0024876923076923,9.141063076923077,-2.4421,3.524226153846154,-0.0416976923076923,-0.0309007692307692,0.0298076923076923
0.395,8.935416923076922,-3.4857784615384624,-3.5963215384615377,-0.0814138461538461,-0.0022861538461538,0.0024815384615385,9.141026153846154,-2.4421,3.524152307692308,-0.0416953846153846,-0.0309015384615384,0.0298153846153846
0.396,8.93548923076923,-3.4857046153846163,-3.596395384615384,-0.0814184615384615,-0.0022815384615385,0.0024753846153846,9.14098923076923,-2.4421,3.524078461538462,-0.0416930769230769,-0.0309023076923076,0.0298230769230769
0.397,8.935561538461538,-3.48563076923077,-3.59646923076923,-0.0814230769230768,-0.0022769230769231,0.0024692307692308,9.140952307692308,-2.4421,3.524004615384616,-0.0416907692307692,-0.0309030769230769,0.0298307692307692
0.398,8.935633846153845,-3.485556923076924,-3.596543076923076,-0.0814276923076922,-0.0022723076923077,0.0024630769230769,9.140915384615385,-2.4421,3.5239307692307693,-0.0416884615384615,-0.0309038461538461,0.0298384615384615
0.399,8.935706153846153,-3.485483076923078,-3.596616923076922,-0.0814323076923076,-0.0022676923076923,0.0024569230769231,9.140878461538462,-2.4421,3.523856923076923,-0.0416861538461538,-0.0309046153846153,0.0298461538461538
0.4,8.935778461538462,-3.4854092307692315,-3.5966907692307686,-0.081436923076923,-0.0022630769230769,0.0024507692307692,9.140841538461538,-2.4421,3.523783076923077,-0.0416838461538461,-0.0309053846153846,0.0298538461538461
0.401,8.935850769230768,-3.4853353846153854,-3.5967646153846147,-0.0814415384615384,-0.0022584615384615,0.0024446153846154,9.140804615384615,-2.4421,3.523709230769231,-0.0416815384615384,-0.0309061538461538,0.0298615384615384
0.402,8.935923076923077,-3.4852615384615397,-3.5968384615384608,-0.0814461538461538,-0.0022538461538461,0.0024384615384615,9.140767692307692,-2.4421,3.523635384615385,-0.0416792307692307,-0.030906923076923,0.0298692307692307
0.403,8.935995384615383,-3.485187692307693,-3.596912307692307,-0.0814507692307691,-0.0022492307692308,0.0024323076923077,9.14073076923077,-2.4421,3.523561538461539,-0.041676923076923,-0.0309076923076923,0.029876923076923
0.404,8.936067692307692,-3.485113846153847,-3.596986153846153,-0.0814553846153845,-0.0022446153846154,0.0024261538461539,9.140693846153846,-2.4421,3.5234876923076923,-0.0416746153846153,-0.0309084615384615,0.0298846153846153
0.405,8.93614,-3.485040000000001,-3.597059999999999,-0.0814599999999999,-0.00224,0.00242,9.140656923076923,-2.4421,3.5234138461538462,-0.0416723076923076,-0.0309092307692307,0.0298923076923076
0.406,8.936212307692307,-3.4849661538461545,-3.5971338461538456,-0.0814646153846153,-0.0022353846153846,0.0024138461538462,9.14062,-2.4421,3.52334,-0.04167,-0.03091,0.0299
0.407,8.936284615384615,-3.4848923076923084,-3.597207692307692,-0.0814692307692307,-0.0022307692307692,0.0024076923076923,9.140583076923075,-2.4421,3.523266153846154,-0.0416676923076923,-0.0309107692307692,0.0299076923076923
0.408,8.936356923076922,-3.4848184615384623,-3.5972815384615378,-0.0814738461538461,-0.0022261538461538,0.0024015384615385,9.140546153846154,-2.4421,3.523192307692308,-0.0416653846153846,-0.0309115384615384,0.0299153846153846
0.409,8.93642923076923,-3.484744615384616,-3.597355384615384,-0.0814784615384615,-0.0022215384615385,0.0023953846153846,9.140509230769233,-2.4421,3.523118461538462,-0.0416630769230769,-0.0309123076923076,0.0299230769230769
0.41,8.936501538461538,-3.48467076923077,-3.59742923076923,-0.0814830769230768,-0.0022169230769231,0.0023892307692308,9.140472307692308,-2.4421,3.523044615384616,-0.0416607692307692,-0.0309130769230769,0.0299307692307692
0.411,8.936573846153845,-3.484596923076924,-3.597503076923076,-0.0814876923076922,-0.0022123076923077,0.0023830769230769,9.140435384615383,-2.4421,3.522970769230769,-0.0416584615384615,-0.0309138461538461,0.0299384615384615
0.412,8.936646153846153,-3.484523076923077,-3.5975769230769226,-0.0814923076923076,-0.0022076923076923,0.0023769230769231,9.140398461538462,-2.4421,3.522896923076923,-0.0416561538461538,-0.0309146153846153,0.0299461538461538
0.413,8.936718461538462,-3.4844492307692314,-3.5976507692307687,-0.081496923076923,-0.0022030769230769,0.0023707692307692,9.14036153846154,-2.4421,3.522823076923077,-0.0416538461538461,-0.0309153846153846,0.0299538461538461
0.414,8.936790769230768,-3.4843753846153853,-3.5977246153846147,-0.0815015384615384,-0.0021984615384615,0.0023646153846154,9.140324615384616,-2.4421,3.522749230769231,-0.0416515384615384,-0.0309161538461538,0.0299615384615384
0.415,8.936863076923077,-3.4843015384615392,-3.597798461538461,-0.0815061538461538,-0.0021938461538461,0.0023584615384615,9.140287692307693,-2.4421,3.522675384615385,-0.0416492307692307,-0.030916923076923,0.0299692307692307
0.416,8.936935384615383,-3.484227692307693,-3.597872307692307,-0.0815107692307691,-0.0021892307692308,0.0023523076923077,9.14025076923077,-2.4421,3.522601538461539,-0.041646923076923,-0.0309176923076923,0.029976923076923
0.417,8.937007692307692,-3.484153846153847,-3.597946153846153,-0.0815153846153845,-0.0021846153846154,0.0023461538461539,9.140213846153848,-2.4421,3.522527692307692,-0.0416446153846153,-0.0309184615384615,0.0299846153846153
0.418,8.93708,-3.484080000000001,-3.598019999999999,-0.0815199999999999,-0.00218,0.00234,9.140176923076924,-2.4421,3.522453846153846,-0.0416423076923076,-0.0309192307692307,0.0299923076923076
0.419,8.937152307692307,-3.4840061538461544,-3.5980938461538456,-0.0815246153846153,-0.0021753846153846,0.0023338461538462,9.14014,-2.4421,3.52238,-0.04164,-0.03092,0.03
0.42,8.937224615384615,-3.4839323076923083,-3.598167692307692,-0.0815292307692307,-0.0021707692307692,0.0023276923076923,9.140103076923078,-2.4421,3.522306153846154,-0.0416376923076923,-0.0309207692307692,0.0300076923076923
0.421,8.937296923076921,-3.4838584615384622,-3.598241538461538,-0.0815338461538461,-0.0021661538461538,0.0023215384615385,9.140066153846156,-2.4421,3.522232307692308,-0.0416353846153846,-0.0309215384615384,0.0300153846153846
0.422,8.93736923076923,-3.483784615384616,-3.598315384615384,-0.0815384615384614,-0.0021615384615385,0.0023153846153846,9.140029230769231,-2.4421,3.522158461538462,-0.0416330769230769,-0.0309223076923076,0.0300230769230769
0.423,8.937441538461538,-3.48371076923077,-3.59838923076923,-0.0815430769230768,-0.0021569230769231,0.0023092307692308,9.139992307692308,-2.4421,3.522084615384616,-0.0416307692307692,-0.0309230769230769,0.0300307692307692
0.424,8.937513846153845,-3.483636923076924,-3.598463076923076,-0.0815476923076922,-0.0021523076923077,0.0023030769230769,9.139955384615384,-2.4421,3.522010769230769,-0.0416284615384615,-0.0309238461538461,0.0300384615384615
0.425,8.937586153846153,-3.483563076923077,-3.598536923076922,-0.0815523076923076,-0.0021476923076923,0.0022969230769231,9.13991846153846,-2.4421,3.521936923076923,-0.0416261538461538,-0.0309246153846153,0.0300461538461538
0.426,8.937658461538462,-3.483489230769232,-3.5986107692307687,-0.081556923076923,-0.0021430769230769,0.0022907692307692,9.139881538461538,-2.4421,3.521863076923077,-0.0416238461538461,-0.0309253846153846,0.0300538461538461
0.427,8.937730769230768,-3.483415384615385,-3.598684615384615,-0.0815615384615384,-0.0021384615384615,0.0022846153846154,9.139844615384614,-2.4421,3.521789230769231,-0.0416215384615384,-0.0309261538461538,0.0300615384615384
0.428,8.937803076923077,-3.483341538461539,-3.598758461538461,-0.0815661538461538,-0.0021338461538461,0.0022784615384615,9.139807692307691,-2.4421,3.521715384615385,-0.0416192307692307,-0.030926923076923,0.0300692307692307
0.429,8.937875384615383,-3.483267692307693,-3.598832307692307,-0.0815707692307691,-0.0021292307692308,0.0022723076923077,9.139770769230768,-2.4421,3.5216415384615387,-0.041616923076923,-0.0309276923076923,0.030076923076923
0.43,8.937947692307691,-3.483193846153847,-3.598906153846153,-0.0815753846153845,-0.0021246153846154,0.0022661538461539,9.139733846153844,-2.4421,3.521567692307692,-0.0416146153846153,-0.0309284615384615,0.0300846153846153
0.431,8.93802,-3.4831200000000004,-3.59898,-0.0815799999999999,-0.00212,0.00226,9.139696923076922,-2.4421,3.521493846153846,-0.0416123076923076,-0.0309292307692307,0.0300923076923076
0.432,8.938092307692306,-3.4830461538461543,-3.5990538461538457,-0.0815846153846153,-0.0021153846153846,0.0022538461538462,9.13966,-2.4421,3.52142,-0.04161,-0.03093,0.0301
0.433,8.938164615384615,-3.4829723076923083,-3.599127692307692,-0.0815892307692307,-0.0021107692307692,0.0022476923076923,9.139623076923076,-2.4421,3.521346153846154,-0.0416076923076923,-0.0309307692307692,0.0301076923076923
0.434,8.938236923076921,-3.482898461538462,-3.599201538461538,-0.0815938461538461,-0.0021061538461538,0.0022415384615385,9.139586153846151,-2.4421,3.521272307692308,-0.0416053846153846,-0.0309315384615384,0.0301153846153846
0.435,8.93830923076923,-3.482824615384616,-3.599275384615384,-0.0815984615384615,-0.0021015384615385,0.0022353846153846,9.13954923076923,-2.4421,3.5211984615384617,-0.0416030769230769,-0.0309323076923076,0.0301230769230769
0.436,8.938381538461538,-3.48275076923077,-3.59934923076923,-0.0816030769230768,-0.0020969230769231,0.0022292307692308,9.139512307692309,-2.4421,3.521124615384616,-0.0416007692307692,-0.0309330769230769,0.0301307692307692
0.437,8.938453846153845,-3.4826769230769234,-3.5994230769230766,-0.0816076923076922,-0.0020923076923077,0.0022230769230769,9.139475384615384,-2.4421,3.521050769230769,-0.0415984615384615,-0.0309338461538461,0.0301384615384615
0.438,8.938526153846153,-3.4826030769230774,-3.5994969230769227,-0.0816123076923076,-0.0020876923076923,0.0022169230769231,9.13943846153846,-2.4421,3.520976923076923,-0.0415961538461538,-0.0309346153846153,0.0301461538461538
0.439,8.938598461538461,-3.4825292307692317,-3.599570769230769,-0.081616923076923,-0.0020830769230769,0.0022107692307692,9.139401538461538,-2.4421,3.520903076923077,-0.0415938461538461,-0.0309353846153846,0.0301538461538461
0.44,8.938670769230768,-3.482455384615385,-3.599644615384615,-0.0816215384615384,-0.0020784615384615,0.0022046153846154,9.139364615384617,-2.4421,3.520829230769231,-0.0415915384615384,-0.0309361538461538,0.0301615384615384
0.441,8.938743076923076,-3.482381538461539,-3.599718461538461,-0.0816261538461538,-0.0020738461538461,0.0021984615384615,9.139327692307692,-2.4421,3.5207553846153847,-0.0415892307692307,-0.030936923076923,0.0301692307692307
0.442,8.938815384615383,-3.482307692307693,-3.599792307692307,-0.0816307692307691,-0.0020692307692308,0.0021923076923077,9.139290769230769,-2.4421,3.520681538461538,-0.041586923076923,-0.0309376923076923,0.030176923076923
0.443,8.938887692307691,-3.482233846153847,-3.599866153846153,-0.0816353846153845,-0.0020646153846154,0.0021861538461538,9.139253846153846,-2.4421,3.5206076923076925,-0.0415846153846153,-0.0309384615384615,0.0301846153846153
0.444,8.93896,-3.4821600000000004,-3.59994,-0.0816399999999999,-0.00206,0.00218,9.139216923076924,-2.4421,3.520533846153846,-0.0415823076923076,-0.0309392307692307,0.0301923076923077
0.445,8.939032307692306,-3.4820861538461543,-3.600013846153846,-0.0816446153846153,-0.0020553846153846,0.0021738461538462,9.13918,-2.4421,3.52046,-0.04158,-0.03094,0.0302
0.446,8.939104615384615,-3.482012307692308,-3.600087692307692,-0.0816492307692307,-0.0020507692307692,0.0021676923076923,9.139143076923077,-2.4421,3.520386153846154,-0.0415776923076923,-0.0309407692307692,0.0302076923076923
0.447,8.939176923076923,-3.481938461538462,-3.600161538461538,-0.0816538461538461,-0.0020461538461538,0.0021615384615385,9.139106153846154,-2.4421,3.520312307692308,-0.0415753846153846,-0.0309415384615384,0.0302153846153846
0.448,8.93924923076923,-3.481864615384616,-3.600235384615384,-0.0816584615384615,-0.0020415384615384,0.0021553846153846,9.13906923076923,-2.4421,3.5202384615384616,-0.0415730769230769,-0.0309423076923076,0.0302230769230769
0.449,8.939321538461538,-3.48179076923077,-3.60030923076923,-0.0816630769230768,-0.0020369230769231,0.0021492307692308,9.139032307692307,-2.4421,3.520164615384616,-0.0415707692307692,-0.0309430769230769,0.0302307692307692
0.45,8.939393846153845,-3.481716923076924,-3.6003830769230767,-0.0816676923076922,-0.0020323076923077,0.0021430769230769,9.138995384615384,-2.4421,3.520090769230769,-0.0415684615384615,-0.0309438461538461,0.0302384615384615
0.451,8.939466153846153,-3.4816430769230773,-3.6004569230769228,-0.0816723076923076,-0.0020276923076923,0.0021369230769231,9.13895846153846,-2.4421,3.520016923076923,-0.0415661538461538,-0.0309446153846153,0.0302461538461538
0.452,8.939538461538461,-3.481569230769231,-3.600530769230769,-0.081676923076923,-0.0020230769230769,0.0021307692307692,9.138921538461538,-2.4421,3.519943076923077,-0.0415638461538461,-0.0309453846153846,0.0302538461538461
0.453,8.939610769230768,-3.481495384615385,-3.600604615384615,-0.0816815384615384,-0.0020184615384615,0.0021246153846154,9.138884615384615,-2.4421,3.5198692307692308,-0.0415615384615384,-0.0309461538461538,0.0302615384615384
0.454,8.939683076923076,-3.481421538461539,-3.600678461538461,-0.0816861538461538,-0.0020138461538461,0.0021184615384615,9.138847692307692,-2.4421,3.5197953846153847,-0.0415592307692307,-0.030946923076923,0.0302692307692307
0.455,8.939755384615383,-3.481347692307693,-3.600752307692307,-0.0816907692307691,-0.0020092307692308,0.0021123076923077,9.13881076923077,-2.4421,3.5197215384615386,-0.041556923076923,-0.0309476923076923,0.030276923076923
0.456,8.939827692307691,-3.4812738461538464,-3.6008261538461537,-0.0816953846153845,-0.0020046153846154,0.0021061538461538,9.138773846153846,-2.4421,3.5196476923076925,-0.0415546153846153,-0.0309484615384615,0.0302846153846153
0.457,8.9399,-3.4812000000000003,-3.6009,-0.0816999999999999,-0.002,0.0021,9.138736923076925,-2.4421,3.519573846153846,-0.0415523076923076,-0.0309492307692307,0.0302923076923077
0.458,8.939828787878788,-3.481343939393938,-3.6009,-0.0817,-0.0019954545454545,0.002068181818182,9.1387,-2.4421,3.5195,-0.04155,-0.03095,0.0303
0.459,8.939757575757577,-3.4814878787878776,-3.6009,-0.0817,-0.0019909090909091,0.0020363636363638,9.138663076923075,-2.4421,3.5194261538461538,-0.0415476923076923,-0.0309507692307692,0.0303076923076923
0.46,8.939686363636364,-3.481631818181817,-3.6009,-0.0817,-0.0019863636363636,0.0020045454545457,9.138626153846154,-2.4421,3.519352307692308,-0.0415453846153846,-0.0309515384615384,0.0303153846153846
0.461,8.939615151515152,-3.481775757575756,-3.6009,-0.0817,-0.0019818181818182,0.0019727272727275,9.138589230769233,-2.4421,3.5192784615384616,-0.0415430769230769,-0.0309523076923076,0.0303230769230769
0.462,8.939543939393939,-3.481919696969696,-3.6009,-0.0817,-0.0019772727272727,0.0019409090909093,9.138552307692308,-2.4421,3.5192046153846155,-0.0415407692307692,-0.0309530769230769,0.0303307692307692
0.463,8.939472727272728,-3.4820636363636357,-3.6009,-0.0817,-0.0019727272727273,0.0019090909090911,9.138515384615385,-2.4421,3.519130769230769,-0.0415384615384615,-0.0309538461538461,0.0303384615384615
0.464,8.939401515151516,-3.4822075757575743,-3.6009,-0.0817,-0.0019681818181818,0.0018772727272729,9.138478461538462,-2.4421,3.519056923076923,-0.0415361538461538,-0.0309546153846153,0.0303461538461538
0.465,8.939330303030303,-3.482351515151514,-3.6009,-0.0817,-0.0019636363636364,0.0018454545454548,9.13844153846154,-2.4421,3.5189830769230768,-0.0415338461538461,-0.0309553846153846,0.0303538461538461
0.466,8.939259090909092,-3.4824954545454534,-3.6009,-0.0817,-0.0019590909090909,0.0018136363636366,9.138404615384616,-2.4421,3.5189092307692307,-0.0415315384615384,-0.0309561538461538,0.0303615384615384
0.467,8.939187878787878,-3.4826393939393925,-3.6009,-0.0817,-0.0019545454545454,0.0017818181818184,9.138367692307693,-2.4421,3.5188353846153846,-0.0415292307692307,-0.030956923076923,0.0303692307692307
0.468,8.939116666666667,-3.482783333333332,-3.6009,-0.0817,-0.00195,0.0017500000000002,9.13833076923077,-2.4421,3.5187615384615385,-0.041526923076923,-0.0309576923076923,0.030376923076923
0.469,8.939045454545456,-3.4829272727272715,-3.6009,-0.0817,-0.0019454545454545,0.001718181818182,9.138293846153848,-2.4421,3.5186876923076924,-0.0415246153846153,-0.0309584615384615,0.0303846153846154
0.47,8.938974242424242,-3.48307121212121,-3.6009,-0.0817,-0.0019409090909091,0.0016863636363639,9.138256923076923,-2.4421,3.518613846153846,-0.0415223076923076,-0.0309592307692307,0.0303923076923077
0.471,8.938903030303031,-3.48321515151515,-3.6009,-0.0817,-0.0019363636363636,0.0016545454545457,9.13822,-2.4421,3.51854,-0.0415199999999999,-0.03096,0.0304
0.472,8.938831818181818,-3.4833590909090897,-3.6009,-0.0817,-0.0019318181818182,0.0016227272727275,9.138183076923076,-2.4421,3.5184661538461537,-0.0415176923076923,-0.0309607692307692,0.0304076923076923
0.473,8.938760606060606,-3.4835030303030288,-3.6009,-0.0817,-0.0019272727272727,0.0015909090909093,9.138146153846154,-2.4421,3.518392307692308,-0.0415153846153846,-0.0309615384615384,0.0304153846153846
0.474,8.938689393939395,-3.4836469696969683,-3.6009,-0.0817,-0.0019227272727273,0.0015590909090911,9.138109230769231,-2.4421,3.518318461538461,-0.0415130769230769,-0.0309623076923076,0.0304230769230769
0.475,8.938618181818182,-3.483790909090908,-3.6009,-0.0817,-0.0019181818181818,0.0015272727272729,9.138072307692308,-2.4421,3.5182446153846154,-0.0415107692307692,-0.0309630769230769,0.0304307692307692
0.476,8.93854696969697,-3.483934848484847,-3.6009,-0.0817,-0.0019136363636364,0.0014954545454548,9.138035384615383,-2.4421,3.518170769230769,-0.0415084615384615,-0.0309638461538461,0.0304384615384615
0.477,8.938475757575757,-3.4840787878787864,-3.6009,-0.0817,-0.0019090909090909,0.0014636363636366,9.137998461538462,-2.4421,3.518096923076923,-0.0415061538461538,-0.0309646153846153,0.0304461538461538
0.478,8.938404545454546,-3.484222727272726,-3.6009,-0.0817,-0.0019045454545454,0.0014318181818184,9.13796153846154,-2.4421,3.5180230769230767,-0.0415038461538461,-0.0309653846153846,0.0304538461538461
0.479,8.938333333333334,-3.484366666666665,-3.6009,-0.0817,-0.0019,0.0014000000000002,9.137924615384616,-2.4421,3.5179492307692306,-0.0415015384615384,-0.0309661538461538,0.0304615384615384
0.48,8.938262121212121,-3.4845106060606046,-3.6009,-0.0817,-0.0018954545454545,0.001368181818182,9.137887692307691,-2.4421,3.5178753846153845,-0.0414992307692307,-0.030966923076923,0.0304692307692307
0.481,8.93819090909091,-3.484654545454544,-3.6009,-0.0817,-0.0018909090909091,0.0013363636363639,9.13785076923077,-2.4421,3.5178015384615384,-0.041496923076923,-0.0309676923076923,0.030476923076923
0.482,8.938119696969698,-3.484798484848484,-3.6009,-0.0817,-0.0018863636363636,0.0013045454545457,9.137813846153849,-2.4421,3.5177276923076923,-0.0414946153846153,-0.0309684615384615,0.0304846153846154
0.483,8.938048484848485,-3.4849424242424227,-3.6009,-0.0817,-0.0018818181818182,0.0012727272727275,9.137776923076924,-2.4421,3.517653846153846,-0.0414923076923076,-0.0309692307692307,0.0304923076923077
0.484,8.937977272727274,-3.4850863636363623,-3.6009,-0.0817,-0.0018772727272727,0.0012409090909093,9.13774,-2.4421,3.51758,-0.0414899999999999,-0.03097,0.0305
0.485,8.93790606060606,-3.485230303030302,-3.6009,-0.0817,-0.0018727272727273,0.0012090909090911,9.137703076923078,-2.4421,3.5175061538461536,-0.0414876923076923,-0.0309707692307692,0.0305076923076923
0.486,8.937834848484849,-3.485374242424241,-3.6009,-0.0817,-0.0018681818181818,0.001177272727273,9.137666153846157,-2.4421,3.5174323076923075,-0.0414853846153846,-0.0309715384615384,0.0305153846153846
0.487,8.937763636363638,-3.4855181818181804,-3.6009,-0.0817,-0.0018636363636364,0.0011454545454548,9.13762923076923,-2.4421,3.517358461538461,-0.0414830769230769,-0.0309723076923076,0.0305230769230769
0.488,8.937692424242424,-3.48566212121212,-3.6009,-0.0817,-0.0018590909090909,0.0011136363636366,9.137592307692309,-2.4421,3.517284615384616,-0.0414807692307692,-0.0309730769230769,0.0305307692307692
0.489,8.937621212121213,-3.485806060606059,-3.6009,-0.0817,-0.0018545454545454,0.0010818181818184,9.137555384615384,-2.4421,3.5172107692307693,-0.0414784615384615,-0.0309738461538461,0.0305384615384615
0.49,8.93755,-3.4859499999999985,-3.6009,-0.0817,-0.00185,0.0010500000000002,9.13751846153846,-2.4421,3.5171369230769227,-0.0414761538461538,-0.0309746153846153,0.0305461538461538
0.491,8.937478787878788,-3.486093939393938,-3.6009,-0.0817,-0.0018454545454545,0.0010181818181821,9.137481538461538,-2.4421,3.5170630769230766,-0.0414738461538461,-0.0309753846153846,0.0305538461538461
0.492,8.937407575757577,-3.486237878787877,-3.6009,-0.0817,-0.0018409090909091,0.0009863636363639,9.137444615384616,-2.4421,3.5169892307692305,-0.0414715384615384,-0.0309761538461538,0.0305615384615384
0.493,8.937336363636364,-3.4863818181818167,-3.6009,-0.0817,-0.0018363636363636,0.0009545454545457,9.137407692307692,-2.4421,3.5169153846153844,-0.0414692307692307,-0.030976923076923,0.0305692307692307
0.494,8.937265151515152,-3.486525757575756,-3.6009,-0.0817,-0.0018318181818182,0.0009227272727275,9.137370769230769,-2.4421,3.5168415384615384,-0.041466923076923,-0.0309776923076923,0.0305769230769231
0.495,8.93719393939394,-3.4866696969696958,-3.6009,-0.0817,-0.0018272727272727,0.0008909090909093,9.137333846153846,-2.4421,3.5167676923076923,-0.0414646153846153,-0.0309784615384615,0.0305846153846154
0.496,8.937122727272728,-3.486813636363635,-3.6009,-0.0817,-0.0018227272727273,0.0008590909090912,9.137296923076924,-2.4421,3.5166938461538457,-0.0414623076923076,-0.0309792307692307,0.0305923076923077
0.497,8.937051515151516,-3.4869575757575744,-3.6009,-0.0817,-0.0018181818181818,0.000827272727273,9.13726,-2.4421,3.51662,-0.0414599999999999,-0.03098,0.0306
0.498,8.936980303030303,-3.487101515151514,-3.6009,-0.0817,-0.0018136363636364,0.0007954545454548,9.137223076923076,-2.4421,3.516546153846153,-0.0414576923076923,-0.0309807692307692,0.0306076923076923
0.499,8.936909090909092,-3.487245454545453,-3.6009,-0.0817,-0.0018090909090909,0.0007636363636366,9.137186153846152,-2.4421,3.5164723076923075,-0.0414553846153846,-0.0309815384615384,0.0306153846153846
0.5,8.936837878787879,-3.4873893939393925,-3.6009,-0.0817,-0.0018045454545454,0.0007318181818184,9.13714923076923,-2.4421,3.5163984615384614,-0.0414530769230769,-0.0309823076923076,0.0306230769230769
0.501,8.936766666666667,-3.487533333333332,-3.6009,-0.0817,-0.0018,0.0007000000000003,9.137112307692307,-2.4421,3.5163246153846157,-0.0414507692307692,-0.0309830769230769,0.0306307692307692
0.502,8.936695454545456,-3.487677272727271,-3.6009,-0.0817,-0.0017954545454545,0.0006681818181821,9.137075384615384,-2.4421,3.516250769230769,-0.0414484615384615,-0.0309838461538461,0.0306384615384615
0.503,8.936624242424243,-3.4878212121212107,-3.6009,-0.0817,-0.0017909090909091,0.0006363636363639,9.13703846153846,-2.4421,3.516176923076922,-0.0414461538461538,-0.0309846153846153,0.0306461538461538
0.504,8.936553030303031,-3.48796515151515,-3.6009,-0.0817,-0.0017863636363636,0.0006045454545457,9.137001538461538,-2.4421,3.516103076923077,-0.0414438461538461,-0.0309853846153846,0.0306538461538461
0.505,8.936481818181818,-3.4881090909090893,-3.6009,-0.0817,-0.0017818181818182,0.0005727272727275,9.136964615384615,-2.4421,3.5160292307692305,-0.0414415384615384,-0.0309861538461538,0.0306615384615384
0.506,8.936410606060607,-3.488253030303029,-3.6009,-0.0817,-0.0017772727272727,0.0005409090909093,9.136927692307692,-2.4421,3.5159553846153844,-0.0414392307692307,-0.030986923076923,0.0306692307692307
0.507,8.936339393939395,-3.4883969696969683,-3.6009,-0.0817,-0.0017727272727273,0.0005090909090912,9.136890769230767,-2.4421,3.5158815384615383,-0.041436923076923,-0.0309876923076923,0.0306769230769231
0.508,8.936268181818182,-3.4885409090909074,-3.6009,-0.0817,-0.0017681818181818,0.000477272727273,9.136853846153846,-2.4421,3.515807692307692,-0.0414346153846153,-0.0309884615384615,0.0306846153846154
0.509,8.93619696969697,-3.488684848484847,-3.6009,-0.0817,-0.0017636363636364,0.0004454545454548,9.136816923076925,-2.4421,3.5157338461538457,-0.0414323076923076,-0.0309892307692307,0.0306923076923077
0.51,8.936125757575759,-3.4888287878787865,-3.6009,-0.0817,-0.0017590909090909,0.0004136363636366,9.13678,-2.4421,3.51566,-0.0414299999999999,-0.03099,0.0307
0.511,8.936054545454546,-3.4889727272727256,-3.6009,-0.0817,-0.0017545454545454,0.0003818181818184,9.136743076923077,-2.4421,3.515586153846153,-0.0414276923076923,-0.0309907692307692,0.0307076923076923
0.512,8.935983333333334,-3.489116666666665,-3.6009,-0.0817,-0.00175,0.0003500000000003,9.136706153846154,-2.4421,3.5155123076923074,-0.0414253846153846,-0.0309915384615384,0.0307153846153846
0.513,8.935912121212121,-3.4892606060606046,-3.6009,-0.0817,-0.0017454545454545,0.0003181818181821,9.13666923076923,-2.4421,3.5154384615384613,-0.0414230769230769,-0.0309923076923076,0.0307230769230769
0.514,8.93584090909091,-3.489404545454544,-3.6009,-0.0817,-0.0017409090909091,0.0002863636363639,9.136632307692308,-2.4421,3.515364615384615,-0.0414207692307692,-0.0309930769230769,0.0307307692307692
0.515,8.935769696969698,-3.4895484848484832,-3.6009,-0.0817,-0.0017363636363636,0.0002545454545457,9.136595384615385,-2.4421,3.515290769230769,-0.0414184615384615,-0.0309938461538461,0.0307384615384615
0.516,8.935698484848485,-3.4896924242424228,-3.6009,-0.0817,-0.0017318181818182,0.0002227272727275,9.136558461538462,-2.4421,3.5152169230769226,-0.0414161538461538,-0.0309946153846153,0.0307461538461538
0.517,8.935627272727274,-3.4898363636363623,-3.6009,-0.0817,-0.0017272727272727,0.0001909090909094,9.13652153846154,-2.4421,3.5151430769230765,-0.0414138461538461,-0.0309953846153846,0.0307538461538461
0.518,8.93555606060606,-3.4899803030303014,-3.6009,-0.0817,-0.0017227272727273,0.0001590909090912,9.136484615384616,-2.4421,3.5150692307692304,-0.0414115384615384,-0.0309961538461538,0.0307615384615384
0.519,8.93548484848485,-3.490124242424241,-3.6009,-0.0817,-0.0017181818181818,0.000127272727273,9.136447692307692,-2.4421,3.5149953846153843,-0.0414092307692307,-0.030996923076923,0.0307692307692308
0.52,8.935413636363638,-3.4902681818181804,-3.6009,-0.0817,-0.0017136363636364,9.545454545487052e-05,9.13641076923077,-2.4421,3.514921538461538,-0.041406923076923,-0.0309976923076923,0.0307769230769231
0.521,8.935342424242425,-3.4904121212121195,-3.6009,-0.0817,-0.0017090909090909,6.363636363668993e-05,9.136373846153846,-2.4421,3.514847692307692,-0.0414046153846153,-0.0309984615384615,0.0307846153846154
0.522,8.935271212121213,-3.490556060606059,-3.6009,-0.0817,-0.0017045454545455,3.181818181850933e-05,9.136336923076923,-2.4421,3.514773846153846,-0.0414023076923076,-0.0309992307692307,0.0307923076923077
0.523,8.9352,-3.4906999999999986,-3.6009,-0.0817,-0.0017,3.287300986976049e-16,9.1363,-2.4421,3.5147,-0.0413999999999999,-0.0309999999999999,0.0308
0.524,8.9352,-3.490553846153848,-3.6009,-0.0816969230769231,-0.0017,1.2307692307565672e-05,9.136226717557252,-2.4421366412213743,3.5146633587786256,-0.0413984732824427,-0.0309809160305342,0.0308
0.525,8.9352,-3.4904076923076937,-3.6009,-0.0816938461538461,-0.0017,2.4615384615258425e-05,9.136153435114505,-2.442173282442748,3.514626717557252,-0.0413969465648854,-0.0309618320610686,0.0308
0.526,8.9352,-3.49026153846154,-3.6009,-0.0816907692307692,-0.0017,3.6923076922951175e-05,9.136080152671756,-2.442209923664122,3.5145900763358777,-0.0413954198473282,-0.0309427480916029,0.0308
0.527,8.9352,-3.490115384615386,-3.6009,-0.0816876923076923,-0.0017,4.9230769230643926e-05,9.136006870229007,-2.442246564885496,3.514553435114504,-0.0413938931297709,-0.0309236641221373,0.0308
0.528,8.9352,-3.489969230769232,-3.6009,-0.0816846153846154,-0.0017,6.153846153833668e-05,9.13593358778626,-2.4422832061068704,3.514516793893129,-0.0413923664122137,-0.0309045801526716,0.0308
0.529,8.9352,-3.4898230769230785,-3.6009,-0.0816815384615384,-0.0017,7.384615384602942e-05,9.135860305343511,-2.4423198473282444,3.5144801526717555,-0.0413908396946564,-0.030885496183206,0.0308
0.53,8.9352,-3.4896769230769245,-3.6009,-0.0816784615384615,-0.0017,8.615384615372218e-05,9.135787022900764,-2.4423564885496183,3.5144435114503816,-0.0413893129770992,-0.0308664122137403,0.0308
0.531,8.9352,-3.4895307692307704,-3.6009,-0.0816753846153846,-0.0017,9.846153846141492e-05,9.135713740458016,-2.4423931297709927,3.514406870229007,-0.0413877862595419,-0.0308473282442747,0.0308
0.532,8.9352,-3.489384615384617,-3.6009,-0.0816723076923077,-0.0017,0.0001107692307691,9.135640458015269,-2.4424297709923666,3.5143702290076333,-0.0413862595419847,-0.030828244274809,0.0308
0.533,8.9352,-3.489238461538463,-3.6009,-0.0816692307692308,-0.0017,0.0001230769230768,9.135567175572518,-2.4424664122137405,3.51433358778626,-0.0413847328244274,-0.0308091603053434,0.0308
0.534,8.9352,-3.489092307692309,-3.6009,-0.0816661538461538,-0.0017,0.0001353846153844,9.135493893129771,-2.4425030534351144,3.514296946564885,-0.0413832061068702,-0.0307900763358777,0.0308
0.535,8.9352,-3.4889461538461557,-3.6009,-0.0816630769230769,-0.0017,0.0001476923076921,9.135420610687024,-2.442539694656489,3.514260305343511,-0.0413816793893129,-0.0307709923664121,0.0308
0.536,8.9352,-3.488800000000001,-3.6009,-0.08166,-0.0017,0.0001599999999998,9.135347328244276,-2.4425763358778627,3.514223664122137,-0.0413801526717557,-0.0307519083969464,0.0308
0.537,8.9352,-3.488653846153848,-3.6009,-0.0816569230769231,-0.0017,0.0001723076923075,9.135274045801529,-2.4426129770992366,3.5141870229007632,-0.0413786259541984,-0.0307328244274808,0.0308
0.538,8.9352,-3.4885076923076936,-3.6009,-0.0816538461538461,-0.0017,0.0001846153846152,9.135200763358778,-2.4426496183206106,3.5141503816793893,-0.0413770992366412,-0.0307137404580151,0.0308
0.539,8.9352,-3.48836153846154,-3.6009,-0.0816507692307692,-0.0017,0.0001969230769229,9.135127480916031,-2.442686259541985,3.514113740458015,-0.0413755725190839,-0.0306946564885495,0.0308
0.54,8.9352,-3.488215384615386,-3.6009,-0.0816476923076923,-0.0017,0.0002092307692306,9.135054198473282,-2.442722900763359,3.514077099236641,-0.0413740458015267,-0.0306755725190838,0.0308
0.541,8.9352,-3.488069230769232,-3.6009,-0.0816446153846154,-0.0017,0.0002215384615383,9.134980916030534,-2.4427595419847328,3.514040458015267,-0.0413725190839694,-0.0306564885496182,0.0308
0.542,8.9352,-3.487923076923078,-3.6009,-0.0816415384615384,-0.0017,0.000233846153846,9.134907633587789,-2.442796183206107,3.5140038167938927,-0.0413709923664122,-0.0306374045801525,0.0308
0.543,8.9352,-3.4877769230769244,-3.6009,-0.0816384615384615,-0.0017,0.0002461538461537,9.134834351145038,-2.442832824427481,3.513967175572519,-0.0413694656488549,-0.0306183206106869,0.0308
0.544,8.9352,-3.4876307692307704,-3.6009,-0.0816353846153846,-0.0017,0.0002584615384614,9.13476106870229,-2.442869465648855,3.513930534351145,-0.0413679389312977,-0.0305992366412213,0.0308
0.545,8.9352,-3.487484615384617,-3.6009,-0.0816323076923077,-0.0017,0.0002707692307691,9.134687786259542,-2.442906106870229,3.513893893129771,-0.0413664122137404,-0.0305801526717556,0.0308
0.546,8.9352,-3.487338461538463,-3.6009,-0.0816292307692308,-0.0017,0.0002830769230768,9.134614503816794,-2.4429427480916037,3.5138572519083966,-0.0413648854961832,-0.03056106870229,0.0308
0.547,8.9352,-3.487192307692309,-3.6009,-0.0816261538461538,-0.0017,0.0002953846153844,9.134541221374043,-2.442979389312977,3.5138206106870227,-0.0413633587786259,-0.0305419847328243,0.0308
0.548,8.9352,-3.4870461538461552,-3.6009,-0.0816230769230769,-0.0017,0.0003076923076921,9.134467938931298,-2.443016030534351,3.5137839694656487,-0.0413618320610686,-0.0305229007633587,0.0308
0.549,8.9352,-3.486900000000001,-3.6009,-0.08162,-0.0017,0.0003199999999998,9.13439465648855,-2.443052671755725,3.513747328244275,-0.0413603053435114,-0.030503816793893,0.0308
0.55,8.9352,-3.486753846153847,-3.6009,-0.0816169230769231,-0.0017,0.0003323076923075,9.134321374045802,-2.4430893129770994,3.5137106870229005,-0.0413587786259541,-0.0304847328244274,0.0308
0.551,8.9352,-3.4866076923076936,-3.6009,-0.0816138461538461,-0.0017,0.0003446153846152,9.134248091603054,-2.4431259541984733,3.5136740458015265,-0.0413572519083969,-0.0304656488549617,0.0308
0.552,8.9352,-3.48646153846154,-3.6009,-0.0816107692307692,-0.0017,0.0003569230769229,9.134174809160305,-2.4431625954198477,3.5136374045801526,-0.0413557251908396,-0.0304465648854961,0.0308
0.553,8.9352,-3.486315384615386,-3.6009,-0.0816076923076923,-0.0017,0.0003692307692306,9.134101526717558,-2.4431992366412216,3.5136007633587782,-0.0413541984732824,-0.0304274809160304,0.0308
0.554,8.9352,-3.486169230769232,-3.6009,-0.0816046153846154,-0.0017,0.0003815384615383,9.134028244274807,-2.443235877862596,3.5135641221374043,-0.0413526717557251,-0.0304083969465648,0.0308
0.555,8.9352,-3.486023076923078,-3.6009,-0.0816015384615384,-0.0017,0.000393846153846,9.13395496183206,-2.443272519083969,3.5135274809160304,-0.0413511450381679,-0.0303893129770991,0.0308
0.556,8.9352,-3.4858769230769244,-3.6009,-0.0815984615384615,-0.0017,0.0004061538461537,9.133881679389312,-2.4433091603053434,3.5134908396946565,-0.0413496183206106,-0.0303702290076335,0.0308
