Time,ACCx_taR,ACCy_taR,ACCz_taR,GYRx_taR,GYRy_taR,GYRz_taR,ACCx_taL,ACCy_taL,ACCz_taL,GYRx_taL,GYRy_taL,GYRz_taL
0.0,9.1219,-3.3902,3.0789,-0.0826,0.0003,0.0032,8.1738,-3.371,-3.6871,-0.033,-0.0286,0.0257
0.001,9.121675,-3.39005,3.0786015625,-0.0825984375,0.0002953124999999,0.00320625,8.173763909774436,-3.3709285714285717,-3.686991729323308,-0.032993984962406,-0.028587969924812,0.0257030075187969
0.002,9.12145,-3.3899,3.078303125,-0.082596875,0.0002906249999999,0.0032125,8.173727819548873,-3.370857142857143,-3.6868834586466166,-0.032987969924812,-0.028575939849624,0.0257060150375939
0.003,9.121225,-3.38975,3.0780046875,-0.0825953125,0.0002859374999999,0.00321875,8.17369172932331,-3.3707857142857143,-3.686775187969925,-0.032981954887218,-0.028563909774436,0.0257090225563909
0.004,9.121,-3.3896,3.07770625,-0.08259375,0.0002812499999999,0.003225,8.173655639097744,-3.3707142857142856,-3.686666917293233,-0.032975939849624,-0.0285518796992481,0.0257120300751879
0.005,9.120775,-3.38945,3.0774078125,-0.0825921875,0.0002765624999999,0.00323125,8.17361954887218,-3.3706428571428573,-3.686558646616541,-0.03296992481203,-0.0285398496240601,0.0257150375939849
0.006,9.12055,-3.3893,3.077109375,-0.082590625,0.0002718749999999,0.0032375,8.173583458646617,-3.370571428571429,-3.6864503759398497,-0.032963909774436,-0.0285278195488721,0.0257180451127819
0.007,9.120325,-3.38915,3.0768109375,-0.0825890625,0.0002671874999999,0.00324375,8.173547368421053,-3.3705,-3.686342105263158,-0.0329578947368421,-0.0285157894736842,0.0257210526315789
0.008,9.1201,-3.389,3.0765125,-0.0825875,0.0002624999999999,0.00325,8.17351127819549,-3.370428571428572,-3.686233834586466,-0.0329518796992481,-0.0285037593984962,0.0257240601503759
0.009,9.119875,-3.38885,3.0762140625,-0.0825859375,0.0002578124999999,0.00325625,8.173475187969926,-3.370357142857143,-3.6861255639097754,-0.0329458646616541,-0.0284917293233082,0.0257270676691729
0.01,9.11965,-3.3887,3.0759156249999995,-0.082584375,0.0002531249999999,0.0032625,8.17343909774436,-3.3702857142857146,-3.686017293233083,-0.0329398496240601,-0.0284796992481203,0.0257300751879699
0.011,9.119425,-3.38855,3.0756171875,-0.0825828125,0.0002484374999999,0.00326875,8.173403007518797,-3.370214285714286,-3.685909022556391,-0.0329338345864661,-0.0284676691729323,0.0257330827067669
0.012,9.1192,-3.3884,3.07531875,-0.08258125,0.0002437499999999,0.003275,8.173366917293233,-3.370142857142857,-3.6858007518796994,-0.0329278195488721,-0.0284556390977443,0.0257360902255639
0.013,9.118975,-3.38825,3.0750203124999995,-0.0825796875,0.0002390624999999,0.00328125,8.17333082706767,-3.370071428571429,-3.685692481203008,-0.0329218045112782,-0.0284436090225564,0.0257390977443609
0.014,9.11875,-3.3881,3.0747218749999994,-0.082578125,0.0002343749999999,0.0032875,8.173294736842106,-3.37,-3.685584210526316,-0.0329157894736842,-0.0284315789473684,0.0257421052631578
0.015,9.118525,-3.38795,3.0744234375,-0.0825765625,0.0002296874999999,0.00329375,8.173258646616542,-3.3699285714285714,-3.685475939849624,-0.0329097744360902,-0.0284195488721804,0.0257451127819548
0.016,9.1183,-3.3878,3.074125,-0.082575,0.0002249999999999,0.0033,8.173222556390977,-3.369857142857143,-3.685367669172933,-0.0329037593984962,-0.0284075187969924,0.0257481203007518
0.017,9.118075,-3.38765,3.0738265624999994,-0.0825734375,0.0002203124999999,0.00330625,8.173186466165413,-3.3697857142857144,-3.6852593984962407,-0.0328977443609022,-0.0283954887218045,0.0257511278195488
0.018,9.11785,-3.3875,3.0735281249999997,-0.082571875,0.0002156249999999,0.0033125,8.17315037593985,-3.3697142857142857,-3.685151127819549,-0.0328917293233082,-0.0283834586466165,0.0257541353383458
0.019,9.117625,-3.38735,3.0732296875,-0.0825703125,0.0002109374999999,0.00331875,8.173114285714286,-3.3696428571428574,-3.685042857142857,-0.0328857142857142,-0.0283714285714285,0.0257571428571428
0.02,9.1174,-3.3871999999999995,3.0729312499999994,-0.08256875,0.0002062499999999,0.003325,8.173078195488722,-3.3695714285714287,-3.6849345864661656,-0.0328796992481203,-0.0283593984962406,0.0257601503759398
0.021,9.117175,-3.3870499999999995,3.0726328124999998,-0.0825671875,0.0002015624999999,0.00333125,8.173042105263159,-3.3695,-3.684826315789474,-0.0328736842105263,-0.0283473684210526,0.0257631578947368
0.022,9.11695,-3.3869,3.072334374999999,-0.082565625,0.0001968749999999,0.0033375,8.173006015037593,-3.369428571428572,-3.684718045112782,-0.0328676691729323,-0.0283353383458646,0.0257661654135338
0.023,9.116725,-3.38675,3.072035937499999,-0.0825640625,0.0001921874999999,0.00334375,8.17296992481203,-3.369357142857143,-3.6846097744360895,-0.0328616541353383,-0.0283233082706767,0.0257691729323308
0.024,9.1165,-3.3866,3.0717375,-0.0825625,0.0001874999999999,0.00335,8.172933834586466,-3.369285714285714,-3.684501503759399,-0.0328556390977443,-0.0283112781954887,0.0257721804511278
0.025,9.116275,-3.3864499999999995,3.071439062499999,-0.0825609375,0.0001828124999999,0.00335625,8.172897744360903,-3.369214285714286,-3.684393233082707,-0.0328496240601503,-0.0282992481203007,0.0257751879699248
0.026,9.11605,-3.3862999999999994,3.071140624999999,-0.082559375,0.0001781249999999,0.0033625,8.172861654135339,-3.369142857142857,-3.684284962406015,-0.0328436090225564,-0.0282872180451128,0.0257781954887218
0.027,9.115825,-3.3861499999999998,3.070842187499999,-0.0825578125,0.0001734374999999,0.00336875,8.172825563909775,-3.3690714285714285,-3.684176691729324,-0.0328375939849624,-0.0282751879699248,0.0257812030075187
0.028,9.1156,-3.386,3.0705437499999992,-0.08255625,0.0001687499999999,0.003375,8.17278947368421,-3.369,-3.684068421052632,-0.0328315789473684,-0.0282631578947368,0.0257842105263157
0.029,9.115374999999998,-3.38585,3.070245312499999,-0.0825546875,0.0001640624999999,0.00338125,8.172753383458646,-3.3689285714285715,-3.68396015037594,-0.0328255639097744,-0.0282511278195489,0.0257872180451127
0.03,9.11515,-3.3856999999999995,3.069946874999999,-0.082553125,0.0001593749999999,0.0033875,8.172717293233083,-3.368857142857143,-3.683851879699248,-0.0328195488721804,-0.0282390977443609,0.0257902255639097
0.031,9.114925,-3.3855499999999994,3.069648437499999,-0.0825515625,0.0001546874999999,0.00339375,8.172681203007519,-3.3687857142857145,-3.6837436090225566,-0.0328135338345864,-0.0282270676691729,0.0257932330827067
0.032,9.1147,-3.3853999999999997,3.069349999999999,-0.08255,0.0001499999999999,0.0034,8.172645112781955,-3.3687142857142858,-3.683635338345865,-0.0328075187969924,-0.0282150375939849,0.0257962406015037
0.033,9.114475,-3.385249999999999,3.069051562499999,-0.0825484375,0.0001453124999999,0.00340625,8.172609022556392,-3.368642857142857,-3.683527067669173,-0.0328015037593985,-0.028203007518797,0.0257992481203007
0.034,9.114249999999998,-3.3851,3.068753124999999,-0.082546875,0.0001406249999999,0.0034125,8.172572932330826,-3.3685714285714288,-3.6834187969924814,-0.0327954887218045,-0.028190977443609,0.0258022556390977
0.035,9.114025,-3.3849499999999995,3.0684546874999987,-0.0825453125,0.0001359374999999,0.00341875,8.172536842105263,-3.3685,-3.6833105263157897,-0.0327894736842105,-0.028178947368421,0.0258052631578947
0.036,9.1138,-3.3848,3.068156249999999,-0.08254375,0.0001312499999999,0.003425,8.1725007518797,-3.368428571428572,-3.683202255639098,-0.0327834586466165,-0.0281669172932331,0.0258082706766917
0.037,9.113575,-3.3846499999999997,3.067857812499999,-0.0825421875,0.0001265624999999,0.00343125,8.172464661654136,-3.368357142857143,-3.6830939849624063,-0.0327774436090225,-0.0281548872180451,0.0258112781954887
0.038,9.11335,-3.384499999999999,3.0675593749999988,-0.0825406249999999,0.0001218749999999,0.0034375,8.172428571428572,-3.3682857142857143,-3.6829857142857145,-0.0327714285714285,-0.0281428571428571,0.0258142857142857
0.039,9.113124999999998,-3.384349999999999,3.0672609374999986,-0.0825390625,0.0001171874999999,0.00344375,8.172392481203008,-3.368214285714286,-3.682877443609023,-0.0327654135338346,-0.0281308270676692,0.0258172932330827
0.04,9.1129,-3.3841999999999994,3.066962499999999,-0.0825375,0.0001124999999999,0.00345,8.172356390977443,-3.3681428571428573,-3.682769172932331,-0.0327593984962406,-0.0281187969924812,0.0258203007518796
0.041,9.112675,-3.38405,3.066664062499999,-0.0825359375,0.0001078124999999,0.00345625,8.17232030075188,-3.3680714285714286,-3.68266090225564,-0.0327533834586466,-0.0281067669172932,0.0258233082706766
0.042,9.11245,-3.3838999999999992,3.0663656249999987,-0.082534375,0.0001031249999999,0.0034625,8.172284210526316,-3.3680000000000003,-3.682552631578948,-0.0327473684210526,-0.0280947368421053,0.0258263157894736
0.043,9.112225,-3.383749999999999,3.0660671874999985,-0.0825328125,9.843749999997776e-05,0.00346875,8.172248120300752,-3.367928571428572,-3.682444360902256,-0.0327413533834586,-0.0280827067669173,0.0258293233082706
0.044,9.111999999999998,-3.383599999999999,3.0657687499999984,-0.08253125,9.374999999997727e-05,0.003475,8.172212030075189,-3.367857142857143,-3.682336090225564,-0.0327353383458646,-0.0280706766917293,0.0258323308270676
0.045,9.111775,-3.383449999999999,3.0654703124999987,-0.0825296874999999,8.906249999997677e-05,0.00348125,8.172175939849625,-3.3677857142857146,-3.682227819548873,-0.0327293233082707,-0.0280586466165413,0.0258353383458646
0.046,9.11155,-3.3832999999999998,3.0651718749999985,-0.082528125,8.437499999997623e-05,0.0034875,8.17213984962406,-3.367714285714286,-3.6821195488721807,-0.0327233082706767,-0.0280466165413534,0.0258383458646616
0.047,9.111325,-3.383149999999999,3.0648734374999984,-0.0825265625,7.968749999997572e-05,0.00349375,8.172103759398496,-3.367642857142857,-3.682011278195489,-0.0327172932330827,-0.0280345864661654,0.0258413533834586
0.048,9.1111,-3.382999999999999,3.0645749999999983,-0.082525,7.49999999999752e-05,0.0035,8.172067669172932,-3.367571428571429,-3.681903007518797,-0.0327112781954887,-0.0280225563909774,0.0258443609022556
0.049,9.110874999999998,-3.382849999999999,3.0642765624999986,-0.0825234374999999,7.031249999997469e-05,0.00350625,8.172031578947369,-3.3675,-3.6817947368421056,-0.0327052631578947,-0.0280105263157895,0.0258473684210526
0.05,9.110649999999998,-3.382699999999999,3.0639781249999984,-0.082521875,6.562499999997418e-05,0.0035125,8.171995488721805,-3.367428571428572,-3.681686466165414,-0.0326992481203007,-0.0279984962406015,0.0258503759398496
0.051,9.110425,-3.382549999999999,3.0636796874999983,-0.0825203125,6.093749999997364e-05,0.00351875,8.171959398496242,-3.367357142857143,-3.681578195488722,-0.0326932330827067,-0.0279864661654135,0.0258533834586466
0.052,9.1102,-3.382399999999999,3.063381249999998,-0.08251875,5.624999999997312e-05,0.003525,8.171923308270676,-3.3672857142857144,-3.6814699248120304,-0.0326872180451128,-0.0279744360902256,0.0258563909774435
0.053,9.109975,-3.382249999999999,3.0630828124999985,-0.0825171874999999,5.156249999997264e-05,0.00353125,8.171887218045113,-3.367214285714286,-3.6813616541353382,-0.0326812030075188,-0.0279624060150376,0.0258593984962405
0.054,9.109749999999998,-3.382099999999999,3.0627843749999983,-0.082515625,4.687499999997212e-05,0.0035375,8.171851127819549,-3.367142857142857,-3.681253383458647,-0.0326751879699248,-0.0279503759398496,0.0258624060150375
0.055,9.109524999999998,-3.381949999999999,3.062485937499998,-0.0825140625,4.218749999997161e-05,0.00354375,8.171815037593985,-3.3670714285714287,-3.681145112781955,-0.0326691729323308,-0.0279383458646617,0.0258654135338345
0.056,9.1093,-3.381799999999999,3.062187499999998,-0.0825124999999999,3.7499999999971096e-05,0.00355,8.171778947368422,-3.3670000000000004,-3.681036842105264,-0.0326631578947368,-0.0279263157894737,0.0258684210526315
0.057,9.109075,-3.3816499999999987,3.0618890624999984,-0.0825109374999999,3.281249999997058e-05,0.00355625,8.171742857142858,-3.366928571428572,-3.680928571428572,-0.0326571428571428,-0.0279142857142857,0.0258714285714285
0.058,9.10885,-3.381499999999999,3.0615906249999982,-0.082509375,2.812499999997001e-05,0.0035625,8.171706766917293,-3.366857142857143,-3.68082030075188,-0.0326511278195488,-0.0279022556390977,0.0258744360902255
0.059,9.108624999999998,-3.381349999999999,3.061292187499998,-0.0825078125,2.34374999999695e-05,0.00356875,8.171670676691729,-3.3667857142857147,-3.680712030075188,-0.0326451127819549,-0.0278902255639098,0.0258774436090225
0.06,9.108399999999998,-3.381199999999999,3.060993749999998,-0.0825062499999999,1.874999999996904e-05,0.003575,8.171634586466165,-3.366714285714286,-3.6806037593984966,-0.0326390977443609,-0.0278781954887218,0.0258804511278195
0.061,9.108175,-3.381049999999999,3.0606953124999983,-0.0825046874999999,1.4062499999968527e-05,0.00358125,8.171598496240602,-3.3666428571428573,-3.680495488721805,-0.0326330827067669,-0.0278661654135338,0.0258834586466165
0.062,9.10795,-3.3808999999999987,3.060396874999998,-0.082503125,9.374999999968014e-06,0.0035875,8.171562406015038,-3.366571428571429,-3.680387218045113,-0.0326270676691729,-0.0278541353383459,0.0258864661654135
0.063,9.107725,-3.3807499999999986,3.060098437499998,-0.0825015624999999,4.6874999999674456e-06,0.00359375,8.171526315789475,-3.3665000000000003,-3.680278947368421,-0.0326210526315789,-0.0278421052631579,0.0258894736842105
0.064,9.107500000000002,-3.3806000000000007,3.0598000000000005,-0.0825,-8.676819946301528e-17,0.0035999999999998,8.171490225563911,-3.3664285714285715,-3.6801706766917297,-0.0326150375939849,-0.0278300751879699,0.0258924812030075
0.065,9.107647692307694,-3.3807476923076933,3.0598738461538466,-0.0825015384615384,-1.230769230777952e-05,0.0035753846153844,8.171454135338346,-3.3663571428571437,-3.680062406015038,-0.032609022556391,-0.027818045112782,0.0258954887218045
0.066,9.107795384615386,-3.380895384615385,3.0599476923076927,-0.0825030769230769,-2.461538461547227e-05,0.003550769230769,8.171418045112782,-3.3662857142857145,-3.679954135338346,-0.032603007518797,-0.027806015037594,0.0258984962406014
0.067,9.107943076923078,-3.3810430769230777,3.0600215384615392,-0.0825046153846154,-3.692307692316502e-05,0.0035261538461536,8.171381954887218,-3.366214285714286,-3.6798458646616554,-0.032596992481203,-0.027793984962406,0.0259015037593984
0.068,9.10809076923077,-3.3811907692307703,3.0600953846153853,-0.0825061538461538,-4.923076923085777e-05,0.0035015384615382,8.171345864661655,-3.366142857142857,-3.679737593984963,-0.032590977443609,-0.0277819548872181,0.0259045112781954
0.069,9.108238461538464,-3.3813384615384625,3.0601692307692314,-0.0825076923076923,-6.153846153855052e-05,0.0034769230769228,8.171309774436091,-3.366071428571429,-3.679629323308271,-0.032584962406015,-0.0277699248120301,0.0259075187969924
0.07,9.108386153846157,-3.3814861538461547,3.060243076923077,-0.0825092307692307,-7.384615384624328e-05,0.0034523076923075,8.171273684210528,-3.3660000000000005,-3.6795210526315794,-0.032578947368421,-0.0277578947368421,0.0259105263157894
0.071,9.108533846153849,-3.381633846153847,3.060316923076924,-0.0825107692307692,-8.615384615393602e-05,0.0034276923076921,8.171237593984962,-3.365928571428572,-3.679412781954888,-0.0325729323308271,-0.0277458646616542,0.0259135338345864
0.072,9.10868153846154,-3.3817815384615395,3.0603907692307697,-0.0825123076923077,-9.846153846162878e-05,0.0034030769230767,8.171201503759399,-3.365857142857143,-3.679304511278196,-0.0325669172932331,-0.0277338345864662,0.0259165413533834
0.073,9.108829230769231,-3.381929230769232,3.060464615384616,-0.0825138461538461,-0.0001107692307693,0.0033784615384613,8.171165413533835,-3.365785714285715,-3.679196240601504,-0.0325609022556391,-0.0277218045112782,0.0259195488721804
0.074,9.108976923076924,-3.382076923076924,3.0605384615384623,-0.0825153846153846,-0.000123076923077,0.0033538461538459,8.171129323308271,-3.365714285714286,-3.679087969924813,-0.0325548872180451,-0.0277097744360902,0.0259225563909774
0.075,9.109124615384616,-3.3822246153846165,3.0606123076923084,-0.0825169230769231,-0.0001353846153847,0.0033292307692305,8.171093233082708,-3.3656428571428574,-3.6789796992481207,-0.0325488721804511,-0.0276977443609023,0.0259255639097744
0.076,9.10927230769231,-3.3823723076923087,3.0606861538461545,-0.0825184615384615,-0.0001476923076923,0.0033046153846152,8.171057142857144,-3.365571428571429,-3.678871428571429,-0.0325428571428571,-0.0276857142857143,0.0259285714285714
0.077,9.109420000000002,-3.382520000000001,3.0607600000000006,-0.08252,-0.00016,0.0032799999999998,8.171021052631579,-3.3655000000000004,-3.678763157894737,-0.0325368421052631,-0.0276736842105263,0.0259315789473684
0.078,9.109567692307694,-3.382667692307693,3.0608338461538467,-0.0825215384615384,-0.0001723076923077,0.0032553846153844,8.170984962406015,-3.365428571428572,-3.6786548872180456,-0.0325308270676692,-0.0276616541353384,0.0259345864661653
0.079,9.109715384615386,-3.3828153846153857,3.0609076923076928,-0.0825230769230769,-0.0001846153846154,0.003230769230769,8.170948872180452,-3.3653571428571434,-3.678546616541354,-0.0325248120300752,-0.0276496240601504,0.0259375939849623
0.08,9.109863076923078,-3.382963076923078,3.060981538461539,-0.0825246153846154,-0.0001969230769231,0.0032061538461536,8.170912781954888,-3.3652857142857147,-3.678438345864662,-0.0325187969924812,-0.0276375939849624,0.0259406015037593
0.081,9.11001076923077,-3.3831107692307705,3.0610553846153854,-0.0825261538461538,-0.0002092307692308,0.0031815384615382,8.170876691729324,-3.365214285714286,-3.6783300751879695,-0.0325127819548872,-0.0276255639097745,0.0259436090225563
0.082,9.110158461538465,-3.3832584615384627,3.0611292307692315,-0.0825276923076923,-0.0002215384615385,0.0031569230769228,8.17084060150376,-3.3651428571428577,-3.678221804511279,-0.0325067669172932,-0.0276135338345865,0.0259466165413533
0.083,9.110306153846157,-3.383406153846155,3.0612030769230776,-0.0825292307692307,-0.0002338461538462,0.0031323076923075,8.170804511278195,-3.365071428571429,-3.678113533834587,-0.0325007518796992,-0.0276015037593985,0.0259496240601503
0.084,9.110453846153847,-3.383553846153847,3.061276923076924,-0.0825307692307692,-0.0002461538461539,0.0031076923076921,8.170768421052632,-3.365,-3.678005263157895,-0.0324947368421053,-0.0275894736842106,0.0259526315789473
0.085,9.11060153846154,-3.38370153846154,3.0613507692307698,-0.0825323076923077,-0.0002584615384616,0.0030830769230767,8.170732330827068,-3.364928571428572,-3.677896992481204,-0.0324887218045113,-0.0275774436090226,0.0259556390977443
0.086,9.110749230769231,-3.383849230769232,3.061424615384616,-0.0825338461538461,-0.0002707692307693,0.0030584615384613,8.170696240601504,-3.364857142857143,-3.677788721804512,-0.0324827067669173,-0.0275654135338346,0.0259586466165413
0.087,9.110896923076924,-3.383996923076924,3.061498461538462,-0.0825353846153846,-0.000283076923077,0.0030338461538459,8.17066015037594,-3.3647857142857145,-3.67768045112782,-0.0324766917293233,-0.0275533834586466,0.0259616541353383
0.088,9.111044615384618,-3.3841446153846166,3.0615723076923085,-0.082536923076923,-0.0002953846153847,0.0030092307692305,8.170624060150377,-3.364714285714286,-3.677572180451128,-0.0324706766917293,-0.0275413533834587,0.0259646616541353
0.089,9.11119230769231,-3.384292307692309,3.0616461538461546,-0.0825384615384615,-0.0003076923076924,0.0029846153846151,8.170587969924812,-3.364642857142857,-3.6774639097744366,-0.0324646616541353,-0.0275293233082707,0.0259676691729323
0.09,9.111340000000002,-3.384440000000001,3.0617200000000007,-0.08254,-0.00032,0.0029599999999998,8.170551879699248,-3.364571428571429,-3.677355639097745,-0.0324586466165413,-0.0275172932330827,0.0259706766917293
0.091,9.111487692307694,-3.3845876923076936,3.0617938461538468,-0.0825415384615384,-0.0003323076923077,0.0029353846153844,8.170515789473685,-3.3645000000000005,-3.677247368421053,-0.0324526315789474,-0.0275052631578948,0.0259736842105262
0.092,9.111635384615386,-3.384735384615386,3.061867692307693,-0.0825430769230769,-0.0003446153846154,0.002910769230769,8.170479699248121,-3.364428571428572,-3.6771390977443614,-0.0324466165413534,-0.0274932330827068,0.0259766917293232
0.093,9.11178307692308,-3.384883076923078,3.061941538461539,-0.0825446153846154,-0.0003569230769231,0.0028861538461536,8.170443609022557,-3.3643571428571435,-3.6770308270676697,-0.0324406015037594,-0.0274812030075188,0.0259796992481202
0.094,9.11193076923077,-3.38503076923077,3.062015384615385,-0.0825461538461538,-0.0003692307692308,0.0028615384615382,8.170407518796994,-3.3642857142857148,-3.676922556390978,-0.0324345864661654,-0.0274691729323309,0.0259827067669172
0.095,9.112078461538465,-3.385178461538463,3.062089230769232,-0.0825476923076923,-0.0003815384615385,0.0028369230769228,8.170371428571428,-3.364214285714286,-3.6768142857142863,-0.0324285714285714,-0.0274571428571429,0.0259857142857142
0.096,9.112226153846157,-3.385326153846155,3.0621630769230777,-0.0825492307692307,-0.0003938461538462,0.0028123076923074,8.170335338345865,-3.3641428571428578,-3.6767060150375945,-0.0324225563909774,-0.0274451127819549,0.0259887218045112
0.097,9.112373846153847,-3.385473846153847,3.062236923076924,-0.0825507692307692,-0.0004061538461539,0.0027876923076921,8.170299248120301,-3.364071428571429,-3.676597744360903,-0.0324165413533835,-0.027433082706767,0.0259917293233082
0.098,9.11252153846154,-3.38562153846154,3.06231076923077,-0.0825523076923077,-0.0004184615384616,0.0027630769230767,8.170263157894738,-3.3640000000000003,-3.676489473684211,-0.0324105263157895,-0.027421052631579,0.0259947368421052
0.099,9.112669230769232,-3.385769230769232,3.062384615384616,-0.0825538461538461,-0.0004307692307693,0.0027384615384613,8.170227067669174,-3.363928571428572,-3.67638120300752,-0.0324045112781955,-0.027409022556391,0.0259977443609022
0.1,9.112816923076924,-3.385916923076924,3.062458461538462,-0.0825553846153846,-0.000443076923077,0.0027138461538459,8.17019097744361,-3.3638571428571438,-3.676272932330828,-0.0323984962406015,-0.027396992481203,0.0260007518796992
0.101,9.112964615384618,-3.386064615384617,3.062532307692309,-0.0825569230769231,-0.0004553846153847,0.0026892307692305,8.170154887218045,-3.3637857142857146,-3.676164661654136,-0.0323924812030075,-0.0273849624060151,0.0260037593984962
0.102,9.11311230769231,-3.386212307692309,3.062606153846154,-0.0825584615384615,-0.0004676923076924,0.0026646153846151,8.170118796992481,-3.3637142857142863,-3.676056390977444,-0.0323864661654135,-0.0273729323308271,0.0260067669172932
0.103,9.113260000000002,-3.386360000000001,3.0626800000000007,-0.08256,-0.0004800000000001,0.0026399999999997,8.170082706766918,-3.3636428571428576,-3.675948120300753,-0.0323804511278195,-0.0273609022556391,0.0260097744360902
0.104,9.113407692307694,-3.3865076923076938,3.062753846153847,-0.0825615384615384,-0.0004923076923077,0.0026153846153844,8.170046616541354,-3.363571428571429,-3.6758398496240607,-0.0323744360902256,-0.0273488721804512,0.0260127819548871
0.105,9.113555384615388,-3.386655384615386,3.062827692307693,-0.0825630769230769,-0.0005046153846154,0.002590769230769,8.17001052631579,-3.3635000000000006,-3.675731578947369,-0.0323684210526316,-0.0273368421052632,0.0260157894736841
0.106,9.11370307692308,-3.386803076923078,3.062901538461539,-0.0825646153846154,-0.0005169230769231,0.0025661538461536,8.169974436090227,-3.363428571428572,-3.675623308270677,-0.0323624060150376,-0.0273248120300752,0.0260187969924811
0.107,9.11385076923077,-3.3869507692307703,3.062975384615385,-0.0825661538461538,-0.0005292307692308,0.0025415384615382,8.169938345864661,-3.363357142857143,-3.6755150375939856,-0.0323563909774436,-0.0273127819548873,0.0260218045112781
0.108,9.113998461538465,-3.387098461538463,3.063049230769232,-0.0825676923076923,-0.0005415384615385,0.0025169230769228,8.169902255639098,-3.363285714285715,-3.675406766917294,-0.0323503759398496,-0.0273007518796993,0.0260248120300751
0.109,9.114146153846155,-3.387246153846155,3.0631230769230777,-0.0825692307692307,-0.0005538461538462,0.0024923076923074,8.169866165413534,-3.363214285714286,-3.675298496240602,-0.0323443609022556,-0.0272887218045113,0.0260278195488721
0.11,9.114293846153847,-3.3873938461538478,3.063196923076924,-0.0825707692307692,-0.0005661538461539,0.002467692307692,8.16983007518797,-3.363142857142858,-3.6751902255639104,-0.0323383458646617,-0.0272766917293234,0.0260308270676691
0.111,9.11444153846154,-3.38754153846154,3.06327076923077,-0.0825723076923077,-0.0005784615384616,0.0024430769230767,8.169793984962407,-3.363071428571429,-3.6750819548872182,-0.0323323308270677,-0.0272646616541354,0.0260338345864661
0.112,9.114589230769232,-3.387689230769232,3.063344615384616,-0.0825738461538461,-0.0005907692307693,0.0024184615384613,8.169757894736843,-3.3630000000000004,-3.674973684210527,-0.0323263157894737,-0.0272526315789474,0.0260368421052631
0.113,9.114736923076924,-3.3878369230769243,3.063418461538462,-0.0825753846153846,-0.000603076923077,0.0023938461538459,8.169721804511278,-3.362928571428572,-3.6748654135338352,-0.0323203007518797,-0.0272406015037595,0.0260398496240601
0.114,9.114884615384618,-3.387984615384617,3.063492307692308,-0.0825769230769231,-0.0006153846153847,0.0023692307692305,8.169685714285714,-3.3628571428571434,-3.674757142857144,-0.0323142857142857,-0.0272285714285715,0.0260428571428571
0.115,9.11503230769231,-3.388132307692309,3.0635661538461547,-0.0825784615384615,-0.0006276923076924,0.0023446153846151,8.16964962406015,-3.3627857142857147,-3.674648872180452,-0.0323082706766917,-0.0272165413533835,0.0260458646616541
0.116,9.115180000000002,-3.3882800000000013,3.063640000000001,-0.08258,-0.0006400000000001,0.0023199999999997,8.169613533834587,-3.3627142857142864,-3.67454060150376,-0.0323022556390978,-0.0272045112781955,0.0260488721804511
0.117,9.115327692307694,-3.388427692307693,3.063713846153847,-0.0825815384615384,-0.0006523076923078,0.0022953846153843,8.169577443609024,-3.3626428571428577,-3.674432330827068,-0.0322962406015038,-0.0271924812030076,0.026051879699248
0.118,9.115475384615388,-3.388575384615386,3.063787692307693,-0.0825830769230769,-0.0006646153846154,0.002270769230769,8.16954135338346,-3.362571428571429,-3.6743240601503766,-0.0322902255639098,-0.0271804511278196,0.026054887218045
0.119,9.11562307692308,-3.3887230769230783,3.063861538461539,-0.0825846153846154,-0.0006769230769231,0.0022461538461536,8.169505263157895,-3.3625000000000007,-3.674215789473685,-0.0322842105263158,-0.0271684210526316,0.026057894736842
0.12,9.115770769230773,-3.3888707692307705,3.063935384615385,-0.0825861538461538,-0.0006892307692308,0.0022215384615382,8.169469172932331,-3.362428571428572,-3.674107518796993,-0.0322781954887218,-0.0271563909774437,0.026060902255639
0.121,9.115918461538463,-3.389018461538463,3.0640092307692317,-0.0825876923076923,-0.0007015384615385,0.0021969230769228,8.169433082706767,-3.3623571428571437,-3.673999248120301,-0.0322721804511278,-0.0271443609022557,0.026063909774436
0.122,9.116066153846155,-3.3891661538461557,3.064083076923078,-0.0825892307692307,-0.0007138461538462,0.0021723076923074,8.169396992481204,-3.362285714285715,-3.6738909774436097,-0.0322661654135338,-0.0271323308270677,0.026066917293233
0.123,9.116213846153848,-3.3893138461538475,3.064156923076924,-0.0825907692307692,-0.0007261538461539,0.002147692307692,8.16936090225564,-3.3622142857142863,-3.673782706766918,-0.0322601503759399,-0.0271203007518798,0.02606992481203
0.124,9.11636153846154,-3.38946153846154,3.06423076923077,-0.0825923076923077,-0.0007384615384616,0.0021230769230766,8.169324812030077,-3.362142857142857,-3.673674436090226,-0.0322541353383459,-0.0271082706766918,0.026072932330827
0.125,9.116509230769232,-3.3896092307692323,3.064304615384616,-0.0825938461538461,-0.0007507692307693,0.0020984615384613,8.169288721804513,-3.3620714285714293,-3.673566165413535,-0.0322481203007519,-0.0270962406015038,0.026075939849624
0.126,9.116656923076926,-3.3897569230769244,3.064378461538462,-0.0825953846153846,-0.000763076923077,0.0020738461538459,8.169252631578948,-3.3620000000000005,-3.673457894736843,-0.0322421052631579,-0.0270842105263159,0.026078947368421
0.127,9.116804615384618,-3.3899046153846166,3.0644523076923083,-0.0825969230769231,-0.0007753846153847,0.0020492307692305,8.169216541353384,-3.361928571428572,-3.673349624060151,-0.0322360902255639,-0.0270721804511279,0.026081954887218
0.128,9.11695230769231,-3.3900523076923093,3.0645261538461543,-0.0825984615384615,-0.0007876923076924,0.0020246153846151,8.16918045112782,-3.3618571428571435,-3.6732413533834594,-0.0322300751879699,-0.0270601503759399,0.026084962406015
0.129,9.1171,-3.390199999999998,3.064599999999999,-0.0825999999999999,-0.0007999999999997,0.0020000000000002,8.169144360902257,-3.361785714285715,-3.673133082706768,-0.0322240601503759,-0.0270481203007519,0.026087969924812
0.13,9.1171,-3.38997846153846,3.064526153846153,-0.0825953846153845,-0.0007769230769228,0.0020307692307695,8.169108270676693,-3.3617142857142865,-3.673024812030076,-0.032218045112782,-0.027036090225564,0.0260909774436089
0.131,9.1171,-3.389756923076921,3.064452307692307,-0.0825907692307691,-0.0007538461538459,0.0020615384615387,8.16907218045113,-3.361642857142858,-3.672916541353384,-0.032212030075188,-0.027024060150376,0.0260939849624059
0.132,9.1171,-3.3895353846153826,3.064378461538461,-0.0825861538461538,-0.000730769230769,0.0020923076923079,8.169036090225564,-3.361571428571429,-3.672808270676693,-0.032206015037594,-0.027012030075188,0.0260969924812029
0.133,9.1171,-3.3893138461538443,3.0643046153846147,-0.0825815384615384,-0.000707692307692,0.0021230769230772,8.169,-3.361500000000001,-3.6727000000000007,-0.0322,-0.0270000000000001,0.0260999999999999
0.134,9.1171,-3.3890923076923056,3.0642307692307686,-0.082576923076923,-0.0006846153846151,0.0021538461538464,8.168970050125314,-3.361541979949874,-3.672724060150376,-0.0321973684210526,-0.0269922305764411,0.026108521303258
0.135,9.1171,-3.388870769230768,3.0641569230769226,-0.0825723076923076,-0.0006615384615382,0.0021846153846156,8.168940100250627,-3.361583959899749,-3.672748120300752,-0.0321947368421052,-0.0269844611528822,0.0261170426065162
0.136,9.1171,-3.3886492307692286,3.064083076923076,-0.0825676923076922,-0.0006384615384613,0.0022153846153849,8.168910150375941,-3.3616259398496235,-3.672772180451128,-0.0321921052631579,-0.0269766917293233,0.0261255639097743
0.137,9.1171,-3.3884276923076904,3.06400923076923,-0.0825630769230768,-0.0006153846153843,0.0022461538461541,8.168880200501254,-3.361667919799498,-3.672796240601504,-0.0321894736842105,-0.0269689223057644,0.0261340852130325
0.138,9.1171,-3.388206153846152,3.063935384615384,-0.0825584615384615,-0.0005923076923074,0.0022769230769233,8.168850250626567,-3.361709899749373,-3.672820300751879,-0.0321868421052631,-0.0269611528822055,0.0261426065162906
0.139,9.1171,-3.3879846153846134,3.0638615384615377,-0.0825538461538461,-0.0005692307692305,0.0023076923076926,8.16882030075188,-3.361751879699248,-3.672844360902255,-0.0321842105263158,-0.0269533834586466,0.0261511278195487
0.14,9.1171,-3.3877630769230747,3.063787692307692,-0.0825492307692307,-0.0005461538461536,0.0023384615384618,8.168790350877194,-3.361793859649122,-3.6728684210526312,-0.0321815789473684,-0.0269456140350877,0.0261596491228069
0.141,9.1171,-3.3875415384615364,3.0637138461538456,-0.0825446153846153,-0.0005230769230766,0.002369230769231,8.168760401002507,-3.361835839598997,-3.6728924812030073,-0.032178947368421,-0.0269378446115289,0.026168170426065
0.142,9.1171,-3.387319999999998,3.0636399999999995,-0.0825399999999999,-0.0004999999999997,0.0024000000000003,8.16873045112782,-3.361877819548872,-3.672916541353383,-0.0321763157894737,-0.02693007518797,0.0261766917293232
0.143,9.1171,-3.3870984615384594,3.063566153846153,-0.0825353846153845,-0.0004769230769228,0.0024307692307695,8.168700501253134,-3.361919799498746,-3.672940601503759,-0.0321736842105263,-0.0269223057644111,0.0261852130325813
0.144,9.1171,-3.386876923076921,3.063492307692307,-0.0825307692307691,-0.0004538461538459,0.0024615384615387,8.168670551378447,-3.361961779448621,-3.672964661654135,-0.0321710526315789,-0.0269145363408522,0.0261937343358395
0.145,9.1171,-3.3866553846153824,3.0634184615384608,-0.0825261538461538,-0.000430769230769,0.0024923076923079,8.16864060150376,-3.362003759398496,-3.672988721804511,-0.0321684210526316,-0.0269067669172933,0.0262022556390976
0.146,9.1171,-3.386433846153844,3.0633446153846147,-0.0825215384615384,-0.000407692307692,0.0025230769230772,8.168610651629074,-3.3620457393483703,-3.673012781954887,-0.0321657894736842,-0.0268989974937344,0.0262107769423558
0.147,9.1171,-3.3862123076923054,3.063270769230769,-0.082516923076923,-0.0003846153846151,0.0025538461538464,8.168580701754387,-3.362087719298245,-3.673036842105263,-0.0321631578947368,-0.0268912280701755,0.0262192982456139
0.148,9.1171,-3.385990769230767,3.0631969230769225,-0.0825123076923076,-0.0003615384615382,0.0025846153846156,8.1685507518797,-3.36212969924812,-3.673060902255639,-0.0321605263157895,-0.0268834586466166,0.0262278195488721
0.149,9.1171,-3.3857692307692284,3.0631230769230764,-0.0825076923076922,-0.0003384615384613,0.0026153846153849,8.168520802005013,-3.3621716791979943,-3.673084962406015,-0.0321578947368421,-0.0268756892230577,0.0262363408521302
0.15,9.1171,-3.38554769230769,3.06304923076923,-0.0825030769230768,-0.0003153846153843,0.0026461538461541,8.168490852130327,-3.3622136591478693,-3.673109022556391,-0.0321552631578947,-0.0268679197994988,0.0262448621553883
0.151,9.1171,-3.3853261538461514,3.062975384615384,-0.0824984615384614,-0.0002923076923074,0.0026769230769233,8.16846090225564,-3.362255639097744,-3.673133082706767,-0.0321526315789473,-0.0268601503759399,0.0262533834586465
0.152,9.1171,-3.385104615384613,3.0629015384615377,-0.0824938461538461,-0.0002692307692305,0.0027076923076926,8.168430952380954,-3.3622976190476184,-3.6731571428571423,-0.03215,-0.026852380952381,0.0262619047619046
0.153,9.1171,-3.384883076923075,3.062827692307692,-0.0824892307692307,-0.0002461538461536,0.0027384615384618,8.168401002506267,-3.3623395989974934,-3.6731812030075184,-0.0321473684210526,-0.0268446115288221,0.0262704260651628
0.154,9.1171,-3.384661538461536,3.062753846153845,-0.0824846153846153,-0.0002230769230766,0.002769230769231,8.16837105263158,-3.362381578947368,-3.6732052631578944,-0.0321447368421052,-0.0268368421052632,0.0262789473684209
0.155,9.1171,-3.384439999999998,3.0626799999999994,-0.0824799999999999,-0.0001999999999997,0.0028000000000003,8.168341102756893,-3.3624235588972424,-3.6732293233082713,-0.0321421052631579,-0.0268290726817043,0.0262874686716791
0.156,9.1171,-3.384218461538459,3.0626061538461533,-0.0824753846153845,-0.0001769230769228,0.0028307692307695,8.168311152882206,-3.3624655388471174,-3.673253383458646,-0.0321394736842105,-0.0268213032581454,0.0262959899749372
0.157,9.1171,-3.383996923076921,3.0625323076923068,-0.0824707692307691,-0.0001538461538459,0.0028615384615387,8.168281203007519,-3.362507518796992,-3.673277443609022,-0.0321368421052631,-0.0268135338345865,0.0263045112781954
0.158,9.1171,-3.383775384615382,3.0624584615384607,-0.0824661538461538,-0.0001307692307689,0.002892307692308,8.168251253132834,-3.3625494987468665,-3.673301503759398,-0.0321342105263158,-0.0268057644110276,0.0263130325814535
0.159,9.1171,-3.383553846153844,3.0623846153846146,-0.0824615384615384,-0.000107692307692,0.0029230769230772,8.168221303258147,-3.362591478696741,-3.673325563909774,-0.0321315789473684,-0.0267979949874687,0.0263215538847116
0.16,9.1171,-3.383332307692305,3.0623107692307685,-0.082456923076923,-8.461538461514444e-05,0.0029538461538464,8.16819135338346,-3.362633458646616,-3.67334962406015,-0.032128947368421,-0.0267902255639098,0.0263300751879698
0.161,9.1171,-3.383110769230767,3.0622369230769224,-0.0824523076923076,-6.15384615382206e-05,0.0029846153846157,8.168161403508773,-3.3626754385964905,-3.673373684210526,-0.0321263157894737,-0.0267824561403509,0.0263385964912279
0.162,9.1171,-3.3828892307692287,3.0621630769230763,-0.0824476923076922,-3.846153846129665e-05,0.0030153846153849,8.168131453634086,-3.362717418546365,-3.673397744360902,-0.0321236842105263,-0.026774686716792,0.0263471177944861
0.163,9.1171,-3.38266769230769,3.0620892307692302,-0.0824430769230768,-1.5384615384372705e-05,0.0030461538461541,8.168101503759399,-3.36275939849624,-3.673421804511278,-0.0321210526315789,-0.0267669172932331,0.0263556390977442
0.164,9.1171,-3.382446153846152,3.062015384615384,-0.0824384615384614,7.692307692551133e-06,0.0030769230769234,8.168071553884712,-3.3628013784461146,-3.673445864661654,-0.0321184210526316,-0.0267591478696742,0.0263641604010024
0.165,9.1171,-3.382224615384613,3.0619415384615376,-0.0824338461538461,3.076923076947508e-05,0.0031076923076926,8.168041604010027,-3.3628433583959896,-3.6734699248120295,-0.0321157894736842,-0.0267513784461153,0.0263726817042605
0.166,9.1171,-3.3820030769230747,3.0618676923076915,-0.0824292307692307,5.384615384639892e-05,0.0031384615384618,8.16801165413534,-3.362885338345864,-3.6734939849624055,-0.0321131578947368,-0.0267436090225564,0.0263812030075187
0.167,9.1171,-3.381781538461536,3.0617938461538454,-0.0824246153846153,7.692307692332286e-05,0.003169230769231,8.167981704260653,-3.3629273182957387,-3.6735180451127816,-0.0321105263157895,-0.0267358395989975,0.0263897243107768
0.168,9.1171,-3.3815599999999977,3.0617199999999998,-0.0824199999999999,0.0001000000000002,0.0032000000000003,8.167951754385966,-3.3629692982456136,-3.6735421052631576,-0.0321078947368421,-0.0267280701754386,0.026398245614035
0.169,9.1171,-3.381338461538459,3.061646153846153,-0.0824153846153845,0.0001230769230771,0.0032307692307695,8.167921804511279,-3.363011278195488,-3.6735661654135336,-0.0321052631578947,-0.0267203007518797,0.0264067669172931
0.17,9.1171,-3.3811169230769207,3.061572307692307,-0.0824107692307691,0.000146153846154,0.0032615384615387,8.167891854636592,-3.3630532581453627,-3.673590225563909,-0.0321026315789473,-0.0267125313283208,0.0264152882205512
0.171,9.1171,-3.3808953846153824,3.0614984615384606,-0.0824061538461538,0.000169230769231,0.003292307692308,8.167861904761905,-3.3630952380952377,-3.673614285714285,-0.0321,-0.0267047619047619,0.0264238095238094
0.172,9.1171,-3.380673846153844,3.0614246153846145,-0.0824015384615384,0.0001923076923079,0.0033230769230772,8.16783195488722,-3.363137218045112,-3.673638345864661,-0.0320973684210526,-0.026696992481203,0.0264323308270675
0.173,9.1171,-3.380452307692305,3.0613507692307684,-0.082396923076923,0.0002153846153848,0.0033538461538464,8.167802005012533,-3.363179197994987,-3.673662406015037,-0.0320947368421052,-0.0266892230576441,0.0264408521303257
0.174,9.1171,-3.3802307692307667,3.0612769230769223,-0.0823923076923076,0.0002384615384617,0.0033846153846157,8.167772055137846,-3.3632211779448618,-3.673686466165413,-0.0320921052631579,-0.0266814536340852,0.0264493734335838
0.175,9.1171,-3.3800092307692284,3.061203076923076,-0.0823876923076922,0.0002615384615387,0.0034153846153849,8.167742105263159,-3.3632631578947363,-3.673710526315789,-0.0320894736842105,-0.0266736842105263,0.026457894736842
0.176,9.1171,-3.3797876923076897,3.06112923076923,-0.0823830769230768,0.0002846153846156,0.0034461538461541,8.167712155388472,-3.3633051378446117,-3.673734586466165,-0.0320868421052631,-0.0266659147869674,0.0264664160401001
0.177,9.1171,-3.3795661538461514,3.061055384615384,-0.0823784615384614,0.0003076923076925,0.0034769230769234,8.167682205513785,-3.363347117794486,-3.673758646616541,-0.0320842105263158,-0.0266581453634085,0.0264749373433583
0.178,9.1171,-3.3793446153846127,3.060981538461537,-0.0823738461538461,0.0003307692307694,0.0035076923076926,8.167652255639098,-3.3633890977443603,-3.673782706766917,-0.0320815789473684,-0.0266503759398497,0.0264834586466164
0.179,9.1171,-3.3791230769230745,3.0609076923076914,-0.0823692307692307,0.0003538461538464,0.0035384615384618,8.167622305764413,-3.3634310776942358,-3.6738067669172927,-0.032078947368421,-0.0266426065162908,0.0264919799498746
0.18,9.1171,-3.378901538461536,3.0608338461538454,-0.0823646153846153,0.0003769230769233,0.0035692307692311,8.167592355889726,-3.36347305764411,-3.6738308270676687,-0.0320763157894737,-0.0266348370927319,0.0265005012531327
0.181,9.1171,-3.378679999999997,3.0607599999999997,-0.0823599999999999,0.0004000000000002,0.0036000000000003,8.167562406015039,-3.3635150375939844,-3.6738548872180448,-0.0320736842105263,-0.026627067669173,0.0265090225563908
0.182,9.1171,-3.378458461538459,3.060686153846153,-0.0823553846153845,0.0004230769230771,0.0036307692307695,8.167532456140352,-3.3635570175438594,-3.673878947368421,-0.0320710526315789,-0.0266192982456141,0.026517543859649
0.183,9.1171,-3.3782369230769205,3.060612307692307,-0.0823507692307691,0.0004461538461541,0.0036615384615388,8.167502506265665,-3.363598997493734,-3.673903007518797,-0.0320684210526316,-0.0266115288220552,0.0265260651629071
0.184,9.1171,-3.378015384615382,3.060538461538461,-0.0823461538461537,0.000469230769231,0.003692307692308,8.167472556390978,-3.3636409774436085,-3.673927067669173,-0.0320657894736842,-0.0266037593984963,0.0265345864661653
0.185,9.1171,-3.3777938461538435,3.0604646153846145,-0.0823415384615384,0.0004923076923079,0.0037230769230772,8.16744260651629,-3.3636829573934834,-3.673951127819549,-0.0320631578947368,-0.0265959899749374,0.0265431077694234
0.186,9.1171,-3.377572307692305,3.0603907692307684,-0.082336923076923,0.0005153846153848,0.0037538461538465,8.167412656641604,-3.363724937343358,-3.673975187969925,-0.0320605263157895,-0.0265882205513785,0.0265516290726816
0.187,9.1171,-3.3773507692307665,3.0603169230769223,-0.0823323076923076,0.0005384615384618,0.0037846153846157,8.167382706766919,-3.3637669172932325,-3.673999248120301,-0.0320578947368421,-0.0265804511278196,0.0265601503759397
0.188,9.1171,-3.377129230769228,3.060243076923076,-0.0823276923076922,0.0005615384615387,0.0038153846153849,8.167352756892232,-3.3638088972431075,-3.674023308270676,-0.0320552631578947,-0.0265726817042607,0.0265686716791979
0.189,9.1171,-3.376907692307689,3.06016923076923,-0.0823230769230768,0.0005846153846156,0.0038461538461541,8.167322807017545,-3.363850877192982,-3.674047368421052,-0.0320526315789473,-0.0265649122807018,0.026577192982456
0.19,9.1171,-3.3766861538461512,3.060095384615384,-0.0823184615384614,0.0006076923076925,0.0038769230769234,8.167292857142858,-3.363892857142857,-3.674071428571428,-0.03205,-0.0265571428571429,0.0265857142857142
0.191,9.1171,-3.376464615384613,3.060021538461538,-0.0823138461538461,0.0006307692307694,0.0039076923076926,8.16726290726817,-3.363934837092732,-3.674095488721804,-0.0320473684210526,-0.026549373433584,0.0265942355889723
0.192,9.1171,-3.3762430769230742,3.059947692307692,-0.0823092307692307,0.0006538461538464,0.0039384615384618,8.167232957393484,-3.363976817042606,-3.67411954887218,-0.0320447368421052,-0.0265416040100251,0.0266027568922304
0.193,9.1171,-3.376021538461536,3.0598738461538453,-0.0823046153846153,0.0006769230769233,0.0039692307692311,8.167203007518797,-3.3640187969924806,-3.674143609022556,-0.0320421052631579,-0.0265338345864662,0.0266112781954886
0.194,9.1171,-3.3758000000000017,3.0597999999999974,-0.0823,0.0007,0.0040000000000004,8.167173057644112,-3.364060776942356,-3.674167669172932,-0.0320394736842105,-0.0265260651629073,0.0266197994987467
0.195,9.116876562499998,-3.375950000000002,3.059574999999997,-0.0823,0.0007015625,0.0040359375000004,8.167143107769425,-3.36410275689223,-3.674191729323308,-0.0320368421052631,-0.0265182957393484,0.0266283208020049
0.196,9.116653124999996,-3.376100000000002,3.0593499999999976,-0.0823,0.000703125,0.0040718750000004,8.167113157894738,-3.3641447368421047,-3.674215789473684,-0.0320342105263158,-0.0265105263157895,0.026636842105263
0.197,9.116429687499998,-3.376250000000001,3.059124999999997,-0.0823,0.0007046875,0.0041078125000004,8.16708320802005,-3.36418671679198,-3.67423984962406,-0.0320315789473684,-0.0265027568922306,0.0266453634085212
0.198,9.116206249999998,-3.3764000000000016,3.0588999999999973,-0.0823,0.00070625,0.0041437500000004,8.167053258145364,-3.364228696741854,-3.674263909774436,-0.032028947368421,-0.0264949874686717,0.0266538847117793
0.199,9.1159828125,-3.3765500000000017,3.0586749999999974,-0.0823,0.0007078125,0.0041796875000004,8.167023308270677,-3.3642706766917287,-3.674287969924812,-0.0320263157894737,-0.0264872180451128,0.0266624060150375
0.2,9.115759374999998,-3.376700000000002,3.058449999999997,-0.0823,0.000709375,0.0042156250000004,8.16699335839599,-3.364312656641604,-3.674312030075188,-0.0320236842105263,-0.0264794486215539,0.0266709273182956
0.201,9.115535937499995,-3.376850000000002,3.058224999999997,-0.0823,0.0007109375,0.0042515625000004,8.166963408521305,-3.3643546365914783,-3.674336090225564,-0.0320210526315789,-0.026471679197995,0.0266794486215538
0.202,9.115312499999998,-3.377000000000002,3.057999999999997,-0.0823,0.0007125,0.0042875000000004,8.166933458646618,-3.364396616541353,-3.6743601503759393,-0.0320184210526316,-0.0264639097744361,0.0266879699248119
0.203,9.115089062499996,-3.3771500000000017,3.057774999999997,-0.0823,0.0007140625,0.0043234375000004,8.16690350877193,-3.364438596491228,-3.6743842105263154,-0.0320157894736842,-0.0264561403508772,0.02669649122807
0.204,9.114865624999998,-3.3773000000000017,3.0575499999999973,-0.0823,0.000715625,0.0043593750000004,8.166873558897244,-3.3644805764411023,-3.6744082706766914,-0.0320131578947368,-0.0264483709273183,0.0267050125313282
0.205,9.114642187499998,-3.377450000000002,3.057324999999997,-0.0823,0.0007171875,0.0043953125000004,8.166843609022557,-3.364522556390977,-3.674432330827067,-0.0320105263157894,-0.0264406015037594,0.0267135338345863
0.206,9.114418749999995,-3.377600000000002,3.057099999999997,-0.0823,0.00071875,0.0044312500000004,8.16681365914787,-3.364564536340852,-3.674456390977443,-0.0320078947368421,-0.0264328320802005,0.0267220551378445
0.207,9.114195312499998,-3.377750000000002,3.056874999999997,-0.0823,0.0007203125,0.0044671875000004,8.166783709273183,-3.3646065162907264,-3.674480451127819,-0.0320052631578947,-0.0264250626566416,0.0267305764411026
0.208,9.113971874999995,-3.377900000000002,3.056649999999997,-0.0823,0.000721875,0.0045031250000004,8.166753759398498,-3.364648496240601,-3.674504511278195,-0.0320026315789473,-0.0264172932330827,0.0267390977443608
0.209,9.113748437499998,-3.3780500000000018,3.056424999999997,-0.0823,0.0007234375,0.0045390625000004,8.16672380952381,-3.364690476190476,-3.674528571428571,-0.032,-0.0264095238095238,0.0267476190476189
0.21,9.113524999999996,-3.378200000000002,3.056199999999997,-0.0823,0.000725,0.0045750000000004,8.166693859649124,-3.3647324561403504,-3.674552631578947,-0.0319973684210526,-0.0264017543859649,0.0267561403508771
0.211,9.113301562499997,-3.378350000000002,3.055974999999997,-0.0823,0.0007265625,0.0046109375000004,8.166663909774437,-3.364774436090225,-3.6745766917293223,-0.0319947368421052,-0.026393984962406,0.0267646616541352
0.212,9.113078124999998,-3.378500000000002,3.055749999999997,-0.0823,0.000728125,0.0046468750000004,8.16663395989975,-3.3648164160401,-3.674600751879699,-0.0319921052631579,-0.0263862155388471,0.0267731829573934
0.213,9.112854687499995,-3.378650000000002,3.055524999999997,-0.0823,0.0007296875,0.0046828125000004,8.166604010025063,-3.3648583959899745,-3.674624812030075,-0.0319894736842105,-0.0263784461152882,0.0267817042606515
0.214,9.112631249999998,-3.3788000000000022,3.055299999999997,-0.0823,0.00073125,0.0047187500000004,8.166574060150376,-3.364900375939849,-3.674648872180451,-0.0319868421052631,-0.0263706766917294,0.0267902255639096
0.215,9.112407812499995,-3.378950000000002,3.055074999999997,-0.0823,0.0007328125,0.0047546875000005,8.166544110275689,-3.364942355889724,-3.6746729323308265,-0.0319842105263158,-0.0263629072681705,0.0267987468671678
0.216,9.112184374999998,-3.379100000000002,3.054849999999997,-0.0823,0.000734375,0.0047906250000005,8.166514160401004,-3.3649843358395986,-3.6746969924812025,-0.0319815789473684,-0.0263551378446116,0.0268072681704259
0.217,9.111960937499996,-3.379250000000002,3.054624999999997,-0.0823,0.0007359375,0.0048265625000005,8.166484210526317,-3.365026315789473,-3.6747210526315786,-0.031978947368421,-0.0263473684210527,0.0268157894736841
0.218,9.111737499999997,-3.379400000000002,3.0543999999999967,-0.0823,0.0007375,0.0048625000000005,8.16645426065163,-3.365068295739348,-3.6747451127819546,-0.0319763157894737,-0.0263395989974938,0.0268243107769422
0.219,9.111514062499998,-3.3795500000000023,3.0541749999999968,-0.0823,0.0007390625,0.0048984375000005,8.166424310776943,-3.3651102756892226,-3.67476917293233,-0.0319736842105263,-0.0263318295739349,0.0268328320802004
0.22,9.111290624999995,-3.3797000000000024,3.053949999999997,-0.0823,0.000740625,0.0049343750000005,8.166394360902256,-3.365152255639097,-3.674793233082706,-0.0319710526315789,-0.026324060150376,0.0268413533834585
0.221,9.111067187499998,-3.379850000000002,3.053724999999997,-0.0823,0.0007421875,0.0049703125000005,8.166364411027569,-3.365194235588972,-3.674817293233082,-0.0319684210526316,-0.0263162907268171,0.0268498746867167
0.222,9.110843749999995,-3.380000000000002,3.053499999999997,-0.0823,0.00074375,0.0050062500000005,8.166334461152882,-3.3652362155388467,-3.6748413533834574,-0.0319657894736842,-0.0263085213032582,0.0268583959899748
0.223,9.110620312499996,-3.380150000000002,3.0532749999999966,-0.0823,0.0007453125,0.0050421875000005,8.166304511278197,-3.365278195488721,-3.6748654135338334,-0.0319631578947368,-0.0263007518796993,0.0268669172932329
0.224,9.110396874999998,-3.3803000000000023,3.0530499999999967,-0.0823,0.000746875,0.0050781250000005,8.16627456140351,-3.365320175438596,-3.6748894736842095,-0.0319605263157895,-0.0262929824561404,0.0268754385964911
0.225,9.110173437499997,-3.3804500000000024,3.052824999999997,-0.0823,0.0007484375,0.0051140625000005,8.166244611528823,-3.3653621553884707,-3.674913533834586,-0.0319578947368421,-0.0262852130325815,0.0268839598997492
0.226,9.109949999999998,-3.3806000000000025,3.0525999999999964,-0.0823,0.00075,0.0051500000000005,8.166214661654136,-3.3654041353383453,-3.674937593984962,-0.0319552631578947,-0.0262774436090226,0.0268924812030074
0.227,9.109726562499995,-3.380750000000002,3.0523749999999965,-0.0823,0.0007515625,0.0051859375000005,8.166184711779449,-3.36544611528822,-3.674961654135338,-0.0319526315789473,-0.0262696741854637,0.0269010025062655
0.228,9.109503124999996,-3.3809000000000022,3.0521499999999966,-0.0823,0.000753125,0.0052218750000005,8.166154761904762,-3.365488095238095,-3.674985714285714,-0.03195,-0.0262619047619048,0.0269095238095237
0.229,9.109279687499996,-3.3810500000000023,3.0519249999999967,-0.0823,0.0007546875,0.0052578125000005,8.166124812030075,-3.3655300751879693,-3.6750097744360897,-0.0319473684210526,-0.0262541353383459,0.0269180451127818
0.23,9.109056249999997,-3.3812000000000024,3.0516999999999963,-0.0823,0.00075625,0.0052937500000005,8.16609486215539,-3.3655720551378443,-3.6750338345864657,-0.0319447368421052,-0.026246365914787,0.02692656641604
0.231,9.108832812499998,-3.3813500000000025,3.0514749999999964,-0.0823,0.0007578125,0.0053296875000005,8.166064912280703,-3.365614035087719,-3.6750578947368417,-0.0319421052631579,-0.0262385964912281,0.0269350877192981
0.232,9.108609374999997,-3.3815000000000026,3.0512499999999965,-0.0823,0.000759375,0.0053656250000005,8.166034962406016,-3.3656560150375934,-3.675081954887218,-0.0319394736842105,-0.0262308270676692,0.0269436090225563
0.233,9.108385937499996,-3.3816500000000023,3.0510249999999965,-0.0823,0.0007609375,0.0054015625000005,8.166005012531329,-3.3656979949874684,-3.675106015037594,-0.0319368421052631,-0.0262230576441103,0.0269521303258144
0.234,9.108162499999995,-3.3818000000000024,3.050799999999996,-0.0823,0.0007625,0.0054375000000005,8.165975062656642,-3.365739974937343,-3.6751300751879694,-0.0319342105263158,-0.0262152882205514,0.0269606516290725
0.235,9.107939062499996,-3.3819500000000025,3.0505749999999963,-0.0823,0.0007640625,0.0054734375000005,8.165945112781955,-3.365781954887217,-3.6751541353383455,-0.0319315789473684,-0.0262075187969925,0.0269691729323307
0.236,9.107715624999996,-3.3821000000000025,3.0503499999999963,-0.0823,0.000765625,0.0055093750000005,8.165915162907268,-3.3658239348370924,-3.6751781954887215,-0.031928947368421,-0.0261997493734336,0.0269776942355888
0.237,9.107492187499997,-3.382250000000002,3.0501249999999964,-0.0823,0.0007671875,0.0055453125000005,8.165885213032583,-3.365865914786967,-3.6752022556390975,-0.0319263157894737,-0.0261919799498747,0.026986215538847
0.238,9.107268749999996,-3.3824000000000027,3.049899999999996,-0.0823,0.00076875,0.0055812500000005,8.165855263157896,-3.365907894736841,-3.675226315789473,-0.0319236842105263,-0.0261842105263158,0.0269947368421051
0.239,9.107045312499997,-3.3825500000000024,3.049674999999996,-0.0823,0.0007703125,0.0056171875000005,8.165825313283209,-3.3659498746867165,-3.675250375939849,-0.0319210526315789,-0.0261764411027569,0.0270032581453633
0.24,9.106821874999996,-3.3827000000000025,3.049449999999996,-0.0823,0.000771875,0.0056531250000005,8.165795363408522,-3.365991854636591,-3.675274436090225,-0.0319184210526316,-0.026168671679198,0.0270117794486214
0.241,9.106598437499995,-3.3828500000000026,3.0492249999999963,-0.0823,0.0007734375,0.0056890625000006,8.165765413533835,-3.366033834586465,-3.675298496240601,-0.0319157894736842,-0.0261609022556391,0.0270203007518796
0.242,9.106374999999996,-3.3830000000000027,3.048999999999996,-0.0823,0.000775,0.0057250000000006,8.165735463659148,-3.3660758145363405,-3.675322556390977,-0.0319131578947368,-0.0261531328320802,0.0270288220551377
0.243,9.106151562499996,-3.3831500000000028,3.048774999999996,-0.0823,0.0007765625,0.0057609375000006,8.165705513784461,-3.366117794486215,-3.675346616541353,-0.0319105263157895,-0.0261453634085213,0.0270373433583959
0.244,9.105928124999997,-3.383300000000003,3.048549999999996,-0.0823,0.000778125,0.0057968750000006,8.165675563909774,-3.3661597744360896,-3.675370676691729,-0.0319078947368421,-0.0261375939849624,0.027045864661654
0.245,9.105704687499996,-3.3834500000000025,3.048324999999996,-0.0823,0.0007796875,0.0058328125000006,8.165645614035089,-3.3662017543859646,-3.675394736842105,-0.0319052631578947,-0.0261298245614035,0.0270543859649121
0.246,9.105481249999997,-3.3836000000000026,3.048099999999996,-0.0823,0.00078125,0.0058687500000006,8.165615664160402,-3.366243734335839,-3.675418796992481,-0.0319026315789473,-0.0261220551378446,0.0270629072681703
0.247,9.105257812499996,-3.3837500000000027,3.047874999999996,-0.0823,0.0007828125,0.0059046875000006,8.165585714285715,-3.3662857142857137,-3.675442857142857,-0.0319,-0.0261142857142857,0.0270714285714284
0.248,9.105034374999995,-3.383900000000003,3.047649999999996,-0.0823,0.000784375,0.0059406250000006,8.165555764411028,-3.3663276942355886,-3.6754669172932326,-0.0318973684210526,-0.0261065162907268,0.0270799498746866
0.249,9.104810937499996,-3.384050000000003,3.047424999999996,-0.0823,0.0007859375,0.0059765625000006,8.165525814536341,-3.366369674185463,-3.6754909774436086,-0.0318947368421052,-0.0260987468671679,0.0270884711779447
0.25,9.104587499999996,-3.384200000000003,3.047199999999996,-0.0823,0.0007875,0.0060125000000006,8.165495864661654,-3.3664116541353377,-3.6755150375939847,-0.0318921052631579,-0.0260909774436091,0.0270969924812029
0.251,9.104364062499997,-3.384350000000002,3.046974999999996,-0.0823,0.0007890625,0.0060484375000006,8.165465914786967,-3.3664536340852127,-3.6755390977443607,-0.0318894736842105,-0.0260832080200502,0.027105513784461
0.252,9.104140624999996,-3.3845000000000027,3.046749999999996,-0.0823,0.000790625,0.0060843750000006,8.165435964912282,-3.3664956140350872,-3.675563157894736,-0.0318868421052631,-0.0260754385964913,0.0271140350877192
0.253,9.103917187499995,-3.384650000000003,3.046524999999996,-0.0823,0.0007921875,0.0061203125000006,8.165406015037595,-3.3665375939849618,-3.675587218045112,-0.0318842105263158,-0.0260676691729324,0.0271225563909773
0.254,9.103693749999996,-3.384800000000003,3.046299999999996,-0.0823,0.00079375,0.0061562500000006,8.165376065162908,-3.3665795739348368,-3.675611278195488,-0.0318815789473684,-0.0260598997493735,0.0271310776942355
0.255,9.103470312499995,-3.384950000000003,3.046074999999996,-0.0823,0.0007953125,0.0061921875000006,8.165346115288221,-3.3666215538847117,-3.675635338345864,-0.031878947368421,-0.0260521303258146,0.0271395989974936
0.256,9.103246874999996,-3.385100000000003,3.045849999999996,-0.0823,0.000796875,0.0062281250000006,8.165316165413534,-3.366663533834586,-3.67565939849624,-0.0318763157894737,-0.0260443609022557,0.0271481203007517
0.257,9.103023437499996,-3.3852500000000028,3.045624999999996,-0.0823,0.0007984375,0.0062640625000006,8.165286215538847,-3.366705513784461,-3.675683458646616,-0.0318736842105263,-0.0260365914786968,0.0271566416040099
0.258,9.102800000000004,-3.385399999999996,3.0454,-0.0823,0.0007999999999999,0.0062999999999995,8.16525626566416,-3.366747493734336,-3.675707518796992,-0.0318710526315789,-0.0260288220551379,0.027165162907268
0.259,9.102946153846156,-3.385178461538457,3.0454,-0.0823030769230769,0.0007953846153845,0.0062784615384611,8.165226315789475,-3.36678947368421,-3.675731578947368,-0.0318684210526316,-0.026021052631579,0.0271736842105262
0.26,9.103092307692313,-3.384956923076919,3.0454,-0.0823061538461539,0.0007907692307691,0.0062569230769226,8.165196365914788,-3.366831453634085,-3.675755639097744,-0.0318657894736842,-0.0260132832080201,0.0271822055137843
0.261,9.103238461538464,-3.3847353846153805,3.0454,-0.0823092307692308,0.0007861538461537,0.0062353846153842,8.165166416040101,-3.3668734335839594,-3.67577969924812,-0.0318631578947368,-0.0260055137844612,0.0271907268170425
0.262,9.103384615384618,-3.384513846153842,3.0454,-0.0823123076923077,0.0007815384615383,0.0062138461538457,8.165136466165414,-3.366915413533834,-3.675803759398496,-0.0318605263157895,-0.0259977443609023,0.0271992481203006
0.263,9.103530769230773,-3.3842923076923035,3.0454,-0.0823153846153846,0.0007769230769229,0.0061923076923072,8.165106516290727,-3.366957393483709,-3.675827819548872,-0.0318578947368421,-0.0259899749373434,0.0272077694235588
0.264,9.103676923076923,-3.384070769230765,3.0454,-0.0823184615384615,0.0007723076923076,0.0061707692307688,8.16507656641604,-3.3669993734335835,-3.675851879699248,-0.0318552631578947,-0.0259822055137845,0.0272162907268169
0.265,9.10382307692308,-3.383849230769227,3.0454,-0.0823215384615385,0.0007676923076922,0.0061492307692303,8.165046616541353,-3.367041353383458,-3.675875939849624,-0.0318526315789473,-0.0259744360902256,0.0272248120300751
0.266,9.103969230769234,-3.383627692307688,3.0454,-0.0823246153846154,0.0007630769230768,0.0061276923076918,8.165016666666668,-3.367083333333333,-3.6759,-0.03185,-0.0259666666666667,0.0272333333333332
0.267,9.104115384615389,-3.38340615384615,3.0454,-0.0823276923076923,0.0007584615384614,0.0061061538461534,8.164986716791981,-3.3671253132832075,-3.675924060150376,-0.0318473684210526,-0.0259588972431078,0.0272418546365913
0.268,9.10426153846154,-3.3831846153846112,3.0454,-0.0823307692307692,0.000753846153846,0.0060846153846149,8.164956766917294,-3.367167293233082,-3.675948120300752,-0.0318447368421052,-0.0259511278195489,0.0272503759398495
0.269,9.104407692307696,-3.382963076923073,3.0454,-0.0823338461538462,0.0007492307692306,0.0060630769230765,8.164926817042607,-3.367209273182957,-3.675972180451128,-0.0318421052631579,-0.02594335839599,0.0272588972431076
0.27,9.104553846153848,-3.3827415384615342,3.0454,-0.0823369230769231,0.0007446153846152,0.006041538461538,8.16489686716792,-3.367251253132832,-3.675996240601503,-0.0318394736842105,-0.0259355889724311,0.0272674185463658
0.271,9.104700000000005,-3.382519999999996,3.0454,-0.08234,0.0007399999999999,0.0060199999999995,8.164866917293233,-3.367293233082706,-3.6760203007518792,-0.0318368421052631,-0.0259278195488722,0.0272759398496239
0.272,9.104846153846156,-3.3822984615384573,3.0454,-0.0823430769230769,0.0007353846153845,0.0059984615384611,8.164836967418546,-3.367335213032581,-3.6760443609022553,-0.0318342105263158,-0.0259200501253133,0.0272844611528821
0.273,9.10499230769231,-3.382076923076919,3.0454,-0.0823461538461539,0.0007307692307691,0.0059769230769226,8.16480701754386,-3.367377192982456,-3.6760684210526313,-0.0318315789473684,-0.0259122807017544,0.0272929824561402
0.274,9.105138461538465,-3.3818553846153807,3.0454,-0.0823492307692308,0.0007261538461537,0.0059553846153842,8.164777067669174,-3.36741917293233,-3.676092481203008,-0.031828947368421,-0.0259045112781955,0.0273015037593984
0.275,9.10528461538462,-3.381633846153842,3.0454,-0.0823523076923077,0.0007215384615383,0.0059338461538457,8.164747117794487,-3.367461152882205,-3.676116541353383,-0.0318263157894737,-0.0258967418546366,0.0273100250626565
0.276,9.105430769230772,-3.381412307692304,3.0454,-0.0823553846153846,0.0007169230769229,0.0059123076923072,8.1647171679198,-3.36750313283208,-3.676140601503759,-0.0318236842105263,-0.0258889724310777,0.0273185463659147
0.277,9.105576923076926,-3.381190769230765,3.0454,-0.0823584615384616,0.0007123076923076,0.0058907692307688,8.164687218045113,-3.3675451127819542,-3.676164661654135,-0.0318210526315789,-0.0258812030075188,0.0273270676691728
0.278,9.10572307692308,-3.3809692307692267,3.0454,-0.0823615384615385,0.0007076923076922,0.0058692307692303,8.164657268170426,-3.367587092731829,-3.676188721804511,-0.0318184210526316,-0.0258734335839599,0.0273355889724309
0.279,9.105869230769231,-3.380747692307688,3.0454,-0.0823646153846154,0.0007030769230768,0.0058476923076918,8.16462731829574,-3.367629072681704,-3.676212781954887,-0.0318157894736842,-0.025865664160401,0.0273441102756891
0.28,9.106015384615388,-3.3805261538461497,3.0454,-0.0823676923076923,0.0006984615384614,0.0058261538461534,8.164597368421052,-3.3676710526315783,-3.676236842105263,-0.0318131578947368,-0.0258578947368421,0.0273526315789472
0.281,9.10616153846154,-3.380304615384611,3.0454,-0.0823707692307692,0.000693846153846,0.0058046153846149,8.164567418546367,-3.3677130325814533,-3.676260902255639,-0.0318105263157895,-0.0258501253132832,0.0273611528822054
0.282,9.106307692307697,-3.3800830769230727,3.0454,-0.0823738461538462,0.0006892307692306,0.0057830769230765,8.16453746867168,-3.367755012531328,-3.676284962406015,-0.0318078947368421,-0.0258423558897243,0.0273696741854635
0.283,9.10645384615385,-3.379861538461534,3.0454,-0.0823769230769231,0.0006846153846152,0.005761538461538,8.164507518796993,-3.3677969924812023,-3.676309022556391,-0.0318052631578947,-0.0258345864661654,0.0273781954887217
0.284,9.106600000000002,-3.379639999999996,3.0454,-0.08238,0.0006799999999999,0.0057399999999995,8.164477568922306,-3.3678389724310773,-3.6763330827067664,-0.0318026315789473,-0.0258268170426065,0.0273867167919798
0.285,9.106746153846156,-3.379418461538457,3.0454,-0.0823830769230769,0.0006753846153845,0.0057184615384611,8.16444761904762,-3.367880952380952,-3.6763571428571424,-0.0318,-0.0258190476190476,0.027395238095238
0.286,9.106892307692313,-3.3791969230769188,3.0454,-0.0823861538461539,0.0006707692307691,0.0056969230769226,8.164417669172932,-3.3679229323308264,-3.6763812030075194,-0.0317973684210526,-0.0258112781954888,0.0274037593984961
0.287,9.107038461538464,-3.3789753846153805,3.0454,-0.0823892307692308,0.0006661538461537,0.0056753846153841,8.164387719298245,-3.3679649122807014,-3.6764052631578954,-0.0317947368421052,-0.0258035087719299,0.0274122807017543
0.288,9.107184615384618,-3.3787538461538418,3.0454,-0.0823923076923077,0.0006615384615383,0.0056538461538457,8.16435776942356,-3.368006892230576,-3.67642932330827,-0.0317921052631579,-0.025795739348371,0.0274208020050124
0.289,9.107330769230773,-3.3785323076923035,3.0454,-0.0823953846153846,0.0006569230769229,0.0056323076923072,8.164327819548873,-3.3680488721804505,-3.676453383458646,-0.0317894736842105,-0.0257879699248121,0.0274293233082705
0.29,9.107476923076923,-3.378310769230765,3.0454,-0.0823984615384616,0.0006523076923076,0.0056107692307688,8.164297869674186,-3.368090852130325,-3.676477443609022,-0.0317868421052631,-0.0257802005012532,0.0274378446115287
0.291,9.10762307692308,-3.3780892307692265,3.0454,-0.0824015384615385,0.0006476923076922,0.0055892307692303,8.1642679197995,-3.3681328320802,-3.676501503759398,-0.0317842105263158,-0.0257724310776943,0.0274463659147868
0.292,9.107769230769234,-3.377867692307688,3.0454,-0.0824046153846154,0.0006430769230768,0.0055676923076918,8.164237969924812,-3.3681748120300745,-3.6765255639097743,-0.0317815789473684,-0.0257646616541354,0.027454887218045
0.293,9.107915384615389,-3.377646153846149,3.0454,-0.0824076923076923,0.0006384615384614,0.0055461538461534,8.164208020050125,-3.368216791979949,-3.67654962406015,-0.031778947368421,-0.0257568922305765,0.0274634085213031
0.294,9.10806153846154,-3.3774246153846117,3.0454,-0.0824107692307692,0.000633846153846,0.0055246153846149,8.164178070175439,-3.368258771929824,-3.676573684210526,-0.0317763157894737,-0.0257491228070176,0.0274719298245613
0.295,9.108207692307696,-3.3772030769230725,3.0454,-0.0824138461538462,0.0006292307692306,0.0055030769230764,8.164148120300753,-3.3683007518796986,-3.676597744360902,-0.0317736842105263,-0.0257413533834587,0.0274804511278194
0.296,9.108353846153848,-3.3769815384615343,3.0454,-0.0824169230769231,0.0006246153846152,0.005481538461538,8.164118170426066,-3.3683427318295736,-3.676621804511278,-0.0317710526315789,-0.0257335839598998,0.0274889724310776
0.297,9.108500000000005,-3.3767599999999955,3.0454,-0.08242,0.0006199999999999,0.0054599999999995,8.16408822055138,-3.368384711779448,-3.6766458646616536,-0.0317684210526316,-0.0257258145363409,0.0274974937343357
0.298,9.108646153846156,-3.3765384615384573,3.0454,-0.0824230769230769,0.0006153846153845,0.0054384615384611,8.164058270676692,-3.368426691729322,-3.6766699248120296,-0.0317657894736842,-0.025718045112782,0.0275060150375939
0.299,9.10879230769231,-3.3763169230769186,3.0454,-0.0824261538461539,0.0006107692307691,0.0054169230769226,8.164028320802005,-3.3684686716791976,-3.6766939849624056,-0.0317631578947368,-0.0257102756892231,0.027514536340852
0.3,9.108938461538465,-3.3760953846153803,3.0454,-0.0824292307692308,0.0006061538461537,0.0053953846153841,8.163998370927319,-3.368510651629072,-3.6767180451127817,-0.0317605263157895,-0.0257025062656642,0.0275230576441101
0.301,9.109084615384615,-3.3758738461538416,3.0454,-0.0824323076923077,0.0006015384615383,0.0053738461538457,8.163968421052632,-3.3685526315789467,-3.6767421052631577,-0.0317578947368421,-0.0256947368421053,0.0275315789473683
0.302,9.109230769230772,-3.3756523076923037,3.0454,-0.0824353846153846,0.0005969230769229,0.0053523076923072,8.163938471177945,-3.3685946115288217,-3.676766165413533,-0.0317552631578947,-0.0256869674185464,0.0275401002506264
0.303,9.109376923076926,-3.375430769230765,3.0454,-0.0824384615384616,0.0005923076923075,0.0053307692307687,8.16390852130326,-3.368636591478696,-3.676790225563909,-0.0317526315789473,-0.0256791979949875,0.0275486215538846
0.304,9.10952307692308,-3.3752092307692263,3.0454,-0.0824415384615385,0.0005876923076922,0.0053092307692303,8.163878571428572,-3.3686785714285707,-3.676814285714285,-0.03175,-0.0256714285714286,0.0275571428571427
0.305,9.109669230769232,-3.374987692307688,3.0454,-0.0824446153846154,0.0005830769230768,0.0052876923076918,8.163848621553885,-3.3687205513784457,-3.676838345864661,-0.0317473684210526,-0.0256636591478697,0.0275656641604009
0.306,9.109815384615388,-3.3747661538461493,3.0454,-0.0824476923076923,0.0005784615384614,0.0052661538461534,8.163818671679199,-3.3687625313283203,-3.676862406015037,-0.0317447368421052,-0.0256558897243108,0.027574185463659
0.307,9.10996153846154,-3.374544615384611,3.0454,-0.0824507692307693,0.000573846153846,0.0052446153846149,8.163788721804512,-3.368804511278195,-3.676886466165413,-0.0317421052631579,-0.0256481203007519,0.0275827067669172
0.308,9.110107692307697,-3.3743230769230723,3.0454,-0.0824538461538462,0.0005692307692306,0.0052230769230764,8.163758771929825,-3.36884649122807,-3.676910526315789,-0.0317394736842105,-0.025640350877193,0.0275912280701753
0.309,9.11025384615385,-3.374101538461534,3.0454,-0.0824569230769231,0.0005646153846152,0.005201538461538,8.163728822055138,-3.3688884711779443,-3.676934586466165,-0.0317368421052631,-0.0256325814536341,0.0275997493734335
0.31,9.110400000000002,-3.3738799999999958,3.0454,-0.08246,0.0005599999999999,0.0051799999999995,8.163698872180452,-3.368930451127819,-3.676958646616541,-0.0317342105263158,-0.0256248120300752,0.0276082706766916
0.311,9.110546153846157,-3.373658461538457,3.0454,-0.0824630769230769,0.0005553846153845,0.005158461538461,8.163668922305765,-3.368972431077694,-3.6769827067669167,-0.0317315789473684,-0.0256170426065163,0.0276167919799497
0.312,9.110692307692313,-3.3734369230769183,3.0454,-0.0824661538461539,0.0005507692307691,0.0051369230769226,8.163638972431078,-3.3690144110275684,-3.677006766917293,-0.031728947368421,-0.0256092731829574,0.0276253132832079
0.313,9.110838461538464,-3.37321538461538,3.0454,-0.0824692307692308,0.0005461538461537,0.0051153846153841,8.163609022556392,-3.369056390977443,-3.677030827067669,-0.0317263157894737,-0.0256015037593985,0.027633834586466
0.314,9.110984615384618,-3.372993846153842,3.0454,-0.0824723076923077,0.0005415384615383,0.0050938461538457,8.163579072681705,-3.369098370927318,-3.677054887218045,-0.0317236842105263,-0.0255937343358396,0.0276423558897242
0.315,9.111130769230773,-3.372772307692303,3.0454,-0.0824753846153846,0.0005369230769229,0.0050723076923072,8.163549122807018,-3.3691403508771924,-3.677078947368421,-0.0317210526315789,-0.0255859649122807,0.0276508771929823
0.316,9.111276923076923,-3.372550769230765,3.0454,-0.0824784615384616,0.0005323076923075,0.0050507692307687,8.16351917293233,-3.369182330827067,-3.677103007518797,-0.0317184210526316,-0.0255781954887218,0.0276593984962405
0.317,9.11142307692308,-3.372329230769226,3.0454,-0.0824815384615385,0.0005276923076922,0.0050292307692303,8.163489223057645,-3.369224310776942,-3.677127067669173,-0.0317157894736842,-0.0255704260651629,0.0276679197994986
0.318,9.111569230769232,-3.372107692307688,3.0454,-0.0824846153846154,0.0005230769230768,0.0050076923076918,8.163459273182958,-3.3692662907268165,-3.677151127819549,-0.0317131578947368,-0.025562656641604,0.0276764411027568
0.319,9.111715384615389,-3.371886153846149,3.0454,-0.0824876923076923,0.0005184615384614,0.0049861538461533,8.163429323308272,-3.3693082706766915,-3.6771751879699246,-0.0317105263157895,-0.0255548872180451,0.0276849624060149
0.32,9.11186153846154,-3.371664615384611,3.0454,-0.0824907692307693,0.000513846153846,0.0049646153846149,8.163399373433585,-3.369350250626566,-3.6771992481203,-0.0317078947368421,-0.0255471177944862,0.027693483709273
0.321,9.112007692307694,-3.371443076923072,3.0454,-0.0824938461538462,0.0005092307692306,0.0049430769230764,8.163369423558898,-3.369392230576441,-3.677223308270676,-0.0317052631578947,-0.0255393483709273,0.0277020050125312
0.322,9.112153846153848,-3.371221538461534,3.0454,-0.0824969230769231,0.0005046153846152,0.004921538461538,8.16333947368421,-3.3694342105263155,-3.677247368421052,-0.0317026315789473,-0.0255315789473685,0.0277105263157893
0.323,9.1123,-3.371000000000005,3.0454000000000017,-0.0825,0.0004999999999997,0.0049000000000008,8.163309523809524,-3.36947619047619,-3.677271428571428,-0.0317,-0.0255238095238096,0.0277190476190475
0.324,9.1123,-3.371225000000005,3.045475000000001,-0.0825015625,0.0004874999999997,0.0049421875000008,8.163279573934838,-3.3695181704260646,-3.677295488721804,-0.0316973684210526,-0.0255160401002507,0.0277275689223056
0.325,9.1123,-3.3714500000000047,3.0455500000000013,-0.082503125,0.0004749999999997,0.0049843750000008,8.163249624060152,-3.36956015037594,-3.67731954887218,-0.0316947368421052,-0.0255082706766918,0.0277360902255638
0.326,9.1123,-3.3716750000000046,3.0456250000000016,-0.0825046875,0.0004624999999997,0.0050265625000008,8.163219674185465,-3.369602130325814,-3.677343609022556,-0.0316921052631579,-0.0255005012531329,0.0277446115288219
0.327,9.1123,-3.371900000000005,3.0457000000000014,-0.08250625,0.0004499999999997,0.0050687500000008,8.163189724310778,-3.3696441102756887,-3.677367669172932,-0.0316894736842105,-0.025492731829574,0.0277531328320801
0.328,9.1123,-3.3721250000000045,3.045775000000001,-0.0825078125,0.0004374999999997,0.0051109375000008,8.16315977443609,-3.369686090225564,-3.677391729323308,-0.0316868421052631,-0.0254849624060151,0.0277616541353382
0.329,9.1123,-3.3723500000000044,3.045850000000001,-0.082509375,0.0004249999999997,0.0051531250000007,8.163129824561404,-3.369728070175438,-3.677415789473684,-0.0316842105263158,-0.0254771929824562,0.0277701754385964
0.33,9.1123,-3.3725750000000043,3.0459250000000013,-0.0825109375,0.0004124999999997,0.0051953125000007,8.163099874686717,-3.3697700501253127,-3.67743984962406,-0.0316815789473684,-0.0254694235588973,0.0277786967418545
0.331,9.1123,-3.372800000000004,3.046000000000001,-0.0825125,0.0003999999999997,0.0052375000000007,8.16306992481203,-3.369812030075188,-3.677463909774436,-0.031678947368421,-0.0254616541353384,0.0277872180451126
0.332,9.1123,-3.373025000000004,3.0460750000000014,-0.0825140625,0.0003874999999997,0.0052796875000007,8.163039974937345,-3.3698540100250622,-3.677487969924812,-0.0316763157894737,-0.0254538847117795,0.0277957393483708
0.333,9.1123,-3.373250000000004,3.046150000000001,-0.082515625,0.0003749999999997,0.0053218750000007,8.163010025062658,-3.369895989974937,-3.677512030075188,-0.0316736842105263,-0.0254461152882206,0.0278042606516289
0.334,9.1123,-3.373475000000004,3.046225000000001,-0.0825171875,0.0003624999999997,0.0053640625000007,8.16298007518797,-3.369937969924812,-3.6775360902255634,-0.0316710526315789,-0.0254383458646617,0.0278127819548871
0.335,9.1123,-3.373700000000004,3.0463000000000013,-0.08251875,0.0003499999999997,0.0054062500000007,8.162950125313284,-3.3699799498746863,-3.6775601503759394,-0.0316684210526316,-0.0254305764411028,0.0278213032581452
0.336,9.1123,-3.373925000000004,3.046375000000001,-0.0825203125,0.0003374999999997,0.0054484375000007,8.162920175438597,-3.370021929824561,-3.677584210526316,-0.0316657894736842,-0.0254228070175439,0.0278298245614034
0.337,9.1123,-3.374150000000004,3.046450000000001,-0.082521875,0.0003249999999997,0.0054906250000006,8.16289022556391,-3.370063909774436,-3.677608270676692,-0.0316631578947368,-0.025415037593985,0.0278383458646615
0.338,9.1123,-3.374375000000004,3.0465250000000013,-0.0825234375,0.0003124999999998,0.0055328125000006,8.162860275689223,-3.3701058897243104,-3.677632330827067,-0.0316605263157895,-0.0254072681704261,0.0278468671679197
0.339,9.1123,-3.374600000000004,3.046600000000001,-0.082525,0.0002999999999998,0.0055750000000006,8.162830325814538,-3.370147869674185,-3.677656390977443,-0.0316578947368421,-0.0253994987468672,0.0278553884711778
0.34,9.1123,-3.3748250000000035,3.046675000000001,-0.0825265625,0.0002874999999998,0.0056171875000006,8.16280037593985,-3.37018984962406,-3.677680451127819,-0.0316552631578947,-0.0253917293233083,0.027863909774436
0.341,9.1123,-3.3750500000000034,3.046750000000001,-0.082528125,0.0002749999999998,0.0056593750000006,8.162770426065164,-3.3702318295739344,-3.677704511278195,-0.0316526315789474,-0.0253839598997494,0.0278724310776941
0.342,9.1123,-3.375275000000004,3.046825000000001,-0.0825296875,0.0002624999999998,0.0057015625000006,8.162740476190477,-3.370273809523809,-3.6777285714285712,-0.03165,-0.0253761904761905,0.0278809523809522
0.343,9.1123,-3.3755000000000037,3.046900000000001,-0.08253125,0.0002499999999998,0.0057437500000006,8.16271052631579,-3.370315789473684,-3.677752631578947,-0.0316473684210526,-0.0253684210526316,0.0278894736842104
0.344,9.1123,-3.375725000000003,3.046975000000001,-0.0825328125,0.0002374999999998,0.0057859375000005,8.162680576441103,-3.3703577694235585,-3.677776691729323,-0.0316447368421052,-0.0253606516290727,0.0278979949874685
0.345,9.1123,-3.375950000000003,3.047050000000001,-0.082534375,0.0002249999999998,0.0058281250000005,8.162650626566416,-3.370399749373433,-3.677800751879699,-0.0316421052631579,-0.0253528822055138,0.0279065162907267
0.346,9.1123,-3.376175000000003,3.0471250000000007,-0.0825359375,0.0002124999999998,0.0058703125000005,8.16262067669173,-3.370441729323308,-3.677824812030075,-0.0316394736842105,-0.0253451127819549,0.0279150375939848
0.347,9.1123,-3.376400000000003,3.047200000000001,-0.0825375,0.0001999999999998,0.0059125000000005,8.162590726817044,-3.3704837092731825,-3.677848872180451,-0.0316368421052631,-0.025337343358396,0.027923558897243
0.348,9.1123,-3.376625000000003,3.047275000000001,-0.0825390625,0.0001874999999998,0.0059546875000005,8.162560776942357,-3.370525689223057,-3.6778729323308266,-0.0316342105263158,-0.0253295739348371,0.0279320802005011
0.349,9.1123,-3.376850000000003,3.0473500000000007,-0.082540625,0.0001749999999998,0.0059968750000005,8.16253082706767,-3.370567669172932,-3.6778969924812026,-0.0316315789473684,-0.0253218045112782,0.0279406015037593
0.35,9.1123,-3.3770750000000027,3.047425000000001,-0.0825421875,0.0001624999999998,0.0060390625000005,8.162500877192983,-3.3706096491228066,-3.677921052631578,-0.031628947368421,-0.0253140350877193,0.0279491228070174
0.351,9.1123,-3.377300000000002,3.0475000000000008,-0.08254375,0.0001499999999998,0.0060812500000004,8.162470927318296,-3.370651629072681,-3.6779451127819542,-0.0316263157894737,-0.0253062656641604,0.0279576441102756
0.352,9.1123,-3.3775250000000026,3.0475750000000006,-0.0825453125,0.0001374999999998,0.0061234375000004,8.162440977443609,-3.370693609022556,-3.6779691729323294,-0.0316236842105263,-0.0252984962406015,0.0279661654135337
0.353,9.1123,-3.3777500000000025,3.047650000000001,-0.082546875,0.0001249999999998,0.0061656250000004,8.162411027568922,-3.37073558897243,-3.6779932330827054,-0.0316210526315789,-0.0252907268170426,0.0279746867167918
0.354,9.1123,-3.3779750000000024,3.0477250000000007,-0.0825484375,0.0001124999999998,0.0062078125000004,8.162381077694237,-3.370777568922305,-3.6780172932330815,-0.0316184210526316,-0.0252829573934837,0.02798320802005
0.355,9.1123,-3.3782000000000023,3.0478000000000005,-0.08255,9.999999999987233e-05,0.0062500000000004,8.16235112781955,-3.37081954887218,-3.6780413533834575,-0.0316157894736842,-0.0252751879699248,0.0279917293233081
0.356,9.1123,-3.3784250000000022,3.047875000000001,-0.0825515625,8.749999999987652e-05,0.0062921875000004,8.162321177944863,-3.3708615288220547,-3.6780654135338335,-0.0316131578947368,-0.0252674185463659,0.0280002506265663
0.357,9.1123,-3.378650000000002,3.0479500000000006,-0.082553125,7.499999999988066e-05,0.0063343750000004,8.162291228070176,-3.370903508771929,-3.67808947368421,-0.0316105263157895,-0.025259649122807,0.0280087719298244
0.358,9.1123,-3.378875000000002,3.0480250000000004,-0.0825546875,6.249999999988486e-05,0.0063765625000003,8.162261278195489,-3.370945488721804,-3.678113533834586,-0.0316078947368421,-0.0252518796992482,0.0280172932330826
0.359,9.1123,-3.379100000000002,3.0481000000000007,-0.08255625,4.9999999999889e-05,0.0064187500000003,8.162231328320802,-3.3709874686716788,-3.678137593984962,-0.0316052631578947,-0.0252441102756893,0.0280258145363407
0.36,9.1123,-3.379325000000002,3.0481750000000005,-0.0825578125,3.749999999989314e-05,0.0064609375000003,8.162201378446115,-3.3710294486215533,-3.678161654135338,-0.0316026315789473,-0.0252363408521304,0.0280343358395989
0.361,9.1123,-3.379550000000002,3.0482500000000003,-0.082559375,2.4999999999897337e-05,0.0065031250000003,8.16217142857143,-3.3710714285714283,-3.6781857142857137,-0.0316,-0.0252285714285715,0.028042857142857
0.362,9.1123,-3.3797750000000018,3.0483250000000006,-0.0825609375,1.249999999990148e-05,0.0065453125000003,8.162141478696743,-3.371113408521303,-3.6782097744360898,-0.0315973684210526,-0.0252208020050126,0.0280513784461152
0.363,9.1123,-3.3800000000000017,3.0484000000000004,-0.0825625,-9.432558900623887e-17,0.0065875000000003,8.162111528822056,-3.3711553884711773,-3.678233834586466,-0.0315947368421052,-0.0252130325814537,0.0280598997493733
0.364,9.1123,-3.3802250000000016,3.0484750000000003,-0.0825640625,-1.250000000009013e-05,0.0066296875000003,8.162081578947369,-3.3711973684210523,-3.678257894736842,-0.0315921052631579,-0.0252052631578948,0.0280684210526314
0.365,9.1123,-3.380450000000001,3.0485500000000005,-0.082565625,-2.5000000000086043e-05,0.0066718750000002,8.162051629072682,-3.371239348370927,-3.678281954887218,-0.0315894736842105,-0.0251974937343359,0.0280769423558896
0.366,9.1123,-3.380675000000001,3.0486250000000004,-0.0825671875,-3.750000000008185e-05,0.0067140625000002,8.162021679197995,-3.3712813283208014,-3.6783060150375935,-0.0315868421052631,-0.025189724310777,0.0280854636591477
0.367,9.1123,-3.3809000000000013,3.0487,-0.08256875,-5.000000000007765e-05,0.0067562500000002,8.161991729323308,-3.3713233082706764,-3.6783300751879695,-0.0315842105263158,-0.0251819548872181,0.0280939849624059
0.368,9.1123,-3.3811250000000013,3.0487750000000005,-0.0825703125,-6.250000000007356e-05,0.0067984375000002,8.161961779448623,-3.371365288220551,-3.6783541353383455,-0.0315815789473684,-0.0251741854636592,0.028102506265664
0.369,9.1123,-3.381350000000001,3.0488500000000003,-0.082571875,-7.500000000006937e-05,0.0068406250000002,8.161931829573936,-3.371407268170425,-3.6783781954887216,-0.031578947368421,-0.0251664160401003,0.0281110275689222
0.37,9.1123,-3.381575000000001,3.048925,-0.0825734375,-8.750000000006517e-05,0.0068828125000002,8.161901879699249,-3.3714492481203004,-3.678402255639097,-0.0315763157894737,-0.0251586466165414,0.0281195488721803
0.371,9.1123,-3.381800000000001,3.0490000000000004,-0.082575,-0.0001,0.0069250000000002,8.161871929824562,-3.371491228070175,-3.678426315789473,-0.0315736842105263,-0.0251508771929825,0.0281280701754385
0.372,9.1123,-3.382025000000001,3.049075,-0.0825765625,-0.0001125,0.0069671875000001,8.161841979949875,-3.371533208020049,-3.678450375939849,-0.0315710526315789,-0.0251431077694236,0.0281365914786966
0.373,9.1123,-3.3822500000000013,3.04915,-0.082578125,-0.000125,0.0070093750000001,8.161812030075188,-3.3715751879699245,-3.678474436090225,-0.0315684210526316,-0.0251353383458647,0.0281451127819548
0.374,9.1123,-3.382475000000001,3.0492250000000003,-0.0825796875,-0.0001375,0.0070515625000001,8.161782080200501,-3.371617167919799,-3.678498496240601,-0.0315657894736842,-0.0251275689223058,0.0281536340852129
0.375,9.1123,-3.382700000000001,3.0493,-0.08258125,-0.00015,0.0070937500000001,8.161752130325816,-3.3716591478696736,-3.678522556390977,-0.0315631578947368,-0.0251197994987469,0.028162155388471
0.376,9.1123,-3.382925000000001,3.049375,-0.0825828125,-0.0001625,0.0071359375000001,8.161722180451129,-3.371701127819549,-3.678546616541353,-0.0315605263157895,-0.025112030075188,0.0281706766917292
0.377,9.1123,-3.383150000000001,3.04945,-0.082584375,-0.000175,0.0071781250000001,8.161692230576442,-3.371743107769423,-3.678570676691729,-0.0315578947368421,-0.0251042606516291,0.0281791979949873
0.378,9.1123,-3.383375000000001,3.049525,-0.0825859375,-0.0001875,0.0072203125000001,8.161662280701755,-3.3717850877192976,-3.678594736842105,-0.0315552631578947,-0.0250964912280702,0.0281877192982455
0.379,9.1123,-3.383600000000001,3.0496,-0.0825875,-0.0002,0.0072625,8.161632330827068,-3.3718270676691726,-3.6786187969924806,-0.0315526315789473,-0.0250887218045113,0.0281962406015036
0.38,9.1123,-3.3838250000000007,3.049675,-0.0825890625,-0.0002125,0.0073046875,8.161602380952381,-3.371869047619047,-3.6786428571428567,-0.03155,-0.0250809523809524,0.0282047619047618
0.381,9.1123,-3.3840500000000007,3.04975,-0.082590625,-0.000225,0.007346875,8.161572431077694,-3.3719110275689217,-3.6786669172932327,-0.0315473684210526,-0.0250731829573935,0.0282132832080199
0.382,9.1123,-3.3842750000000006,3.049825,-0.0825921875,-0.0002375,0.0073890625,8.161542481203007,-3.3719530075187967,-3.6786909774436087,-0.0315447368421052,-0.0250654135338346,0.0282218045112781
0.383,9.1123,-3.3845000000000005,3.0499,-0.08259375,-0.00025,0.00743125,8.161512531328322,-3.371994987468671,-3.6787150375939848,-0.0315421052631579,-0.0250576441102757,0.0282303258145362
0.384,9.1123,-3.3847250000000004,3.049975,-0.0825953125,-0.0002625,0.0074734375,8.161482581453635,-3.3720369674185457,-3.67873909774436,-0.0315394736842105,-0.0250498746867168,0.0282388471177944
0.385,9.1123,-3.3849500000000003,3.05005,-0.082596875,-0.000275,0.007515625,8.161452631578948,-3.3720789473684207,-3.678763157894736,-0.0315368421052631,-0.0250421052631579,0.0282473684210525
0.386,9.1123,-3.3851750000000003,3.050125,-0.0825984375,-0.0002874999999999,0.0075578124999999,8.161422681704261,-3.3721209273182957,-3.678787218045112,-0.0315342105263158,-0.025034335839599,0.0282558897243106
0.387,9.1123,-3.3854,3.0502,-0.0826,-0.0002999999999999,0.0075999999999999,8.161392731829574,-3.37216290726817,-3.678811278195489,-0.0315315789473684,-0.0250265664160401,0.0282644110275688
0.388,9.112226153846152,-3.3854738461538463,3.050273846153846,-0.0826,-0.0002784615384615,0.0075815384615384,8.161362781954887,-3.372204887218045,-3.678835338345865,-0.031528947368421,-0.0250187969924812,0.0282729323308269
0.389,9.112152307692307,-3.3855476923076924,3.050347692307692,-0.0826,-0.000256923076923,0.0075630769230769,8.1613328320802,-3.3722468671679198,-3.67885939849624,-0.0315263157894737,-0.0250110275689223,0.0282814536340851
0.39,9.11207846153846,-3.3856215384615385,3.050421538461538,-0.0826,-0.0002353846153846,0.0075446153846153,8.161302882205515,-3.372288847117794,-3.678883458646616,-0.0315236842105263,-0.0250032581453634,0.0282899749373432
0.391,9.112004615384617,-3.385695384615385,3.0504953846153846,-0.0826,-0.0002138461538461,0.0075261538461538,8.161272932330828,-3.372330827067669,-3.678907518796992,-0.0315210526315789,-0.0249954887218045,0.0282984962406014
0.392,9.111930769230767,-3.385769230769231,3.0505692307692307,-0.0826,-0.0001923076923076,0.0075076923076923,8.161242982456141,-3.3723728070175434,-3.678931578947368,-0.0315184210526316,-0.0249877192982456,0.0283070175438595
0.393,9.111856923076925,-3.385843076923077,3.050643076923077,-0.0826,-0.0001707692307692,0.0074892307692307,8.161213032581454,-3.372414786967418,-3.678955639097744,-0.0315157894736842,-0.0249799498746867,0.0283155388471177
0.394,9.111783076923077,-3.3859169230769237,3.050716923076923,-0.0826,-0.0001492307692307,0.0074707692307692,8.161183082706767,-3.372456766917293,-3.67897969924812,-0.0315131578947368,-0.0249721804511279,0.0283240601503758
0.395,9.11170923076923,-3.3859907692307694,3.050790769230769,-0.0826,-0.0001276923076923,0.0074523076923076,8.16115313283208,-3.3724987468671674,-3.679003759398496,-0.0315105263157895,-0.024964411027569,0.0283325814536339
0.396,9.111635384615385,-3.3860646153846155,3.050864615384615,-0.0826,-0.0001061538461538,0.0074338461538461,8.161123182957393,-3.372540726817042,-3.679027819548872,-0.0315078947368421,-0.0249566416040101,0.0283411027568921
0.397,9.111561538461538,-3.386138461538461,3.0509384615384616,-0.0826,-8.461538461538643e-05,0.0074153846153846,8.161093233082708,-3.372582706766917,-3.679051879699248,-0.0315052631578947,-0.0249488721804512,0.0283496240601502
0.398,9.111487692307692,-3.386212307692308,3.051012307692308,-0.0826,-6.307692307692413e-05,0.007396923076923,8.161063283208021,-3.3726246867167915,-3.679075939849624,-0.0315026315789473,-0.0249411027568923,0.0283581453634084
0.399,9.111413846153846,-3.386286153846154,3.051086153846154,-0.0826,-4.153846153846184e-05,0.0073784615384615,8.161033333333334,-3.372666666666666,-3.6791,-0.0315,-0.0249333333333334,0.0283666666666665
0.4,9.11134,-3.3863600000000003,3.05116,-0.0826,-1.999999999999951e-05,0.0073599999999999,8.161003383458647,-3.372708646616541,-3.679124060150376,-0.0314973684210526,-0.0249255639097745,0.0283751879699247
0.401,9.111266153846154,-3.3864338461538463,3.051233846153846,-0.0826,1.5384615384628143e-06,0.0073415384615384,8.16097343358396,-3.372750626566416,-3.679148120300752,-0.0314947368421052,-0.0249177944862156,0.0283837092731828
0.402,9.111192307692308,-3.3865076923076924,3.051307692307692,-0.0826,2.3076923076925085e-05,0.0073230769230769,8.160943483709273,-3.37279260651629,-3.6791721804511273,-0.0314921052631579,-0.0249100250626567,0.028392230576441
0.403,9.111118461538462,-3.3865815384615385,3.051381538461538,-0.0826,4.461538461538741e-05,0.0073046153846153,8.160913533834586,-3.372834586466165,-3.6791962406015033,-0.0314894736842105,-0.0249022556390978,0.0284007518796991
0.404,9.111044615384614,-3.3866553846153846,3.0514553846153847,-0.0826,6.615384615384973e-05,0.0072861538461538,8.160883583959901,-3.37287656641604,-3.6792203007518793,-0.0314868421052631,-0.0248944862155389,0.0284092731829573
0.405,9.110970769230768,-3.386729230769231,3.0515292307692308,-0.0826,8.769230769231206e-05,0.0072676923076923,8.160853634085214,-3.372918546365914,-3.679244360902256,-0.0314842105263158,-0.02488671679198,0.0284177944862154
0.406,9.110896923076922,-3.386803076923077,3.051603076923077,-0.0826,0.0001092307692307,0.0072492307692307,8.160823684210527,-3.372960526315789,-3.679268421052632,-0.0314815789473684,-0.0248789473684211,0.0284263157894735
0.407,9.110823076923076,-3.386876923076924,3.051676923076923,-0.0826,0.0001307692307692,0.0072307692307692,8.16079373433584,-3.373002506265664,-3.679292481203007,-0.031478947368421,-0.0248711779448622,0.0284348370927317
0.408,9.11074923076923,-3.386950769230769,3.051750769230769,-0.0826,0.0001523076923076,0.0072123076923076,8.160763784461153,-3.373044486215538,-3.679316541353383,-0.0314763157894737,-0.0248634085213033,0.0284433583959898
0.409,9.110675384615384,-3.3870246153846155,3.051824615384615,-0.0826,0.0001738461538461,0.0071938461538461,8.160733834586466,-3.373086466165413,-3.679340601503759,-0.0314736842105263,-0.0248556390977444,0.028451879699248
0.41,9.110601538461538,-3.3870984615384616,3.0518984615384617,-0.0826,0.0001953846153846,0.0071753846153846,8.16070388471178,-3.373128446115288,-3.679364661654135,-0.0314710526315789,-0.0248478696741855,0.0284604010025061
0.411,9.110527692307691,-3.387172307692308,3.051972307692308,-0.0826,0.000216923076923,0.007156923076923,8.160673934837092,-3.3731704260651623,-3.679388721804511,-0.0314684210526316,-0.0248401002506266,0.0284689223057643
0.412,9.110453846153844,-3.3872461538461542,3.052046153846154,-0.0826,0.0002384615384615,0.0071384615384615,8.160643984962407,-3.373212406015037,-3.679412781954887,-0.0314657894736842,-0.0248323308270677,0.0284774436090224
0.413,9.11038,-3.3873200000000003,3.05212,-0.0826,0.00026,0.0071199999999999,8.16061403508772,-3.373254385964912,-3.679436842105263,-0.0314631578947368,-0.0248245614035088,0.0284859649122806
0.414,9.110306153846151,-3.3873938461538464,3.052193846153846,-0.0826,0.0002815384615384,0.0071015384615384,8.160584085213033,-3.3732963659147863,-3.679460902255639,-0.0314605263157895,-0.0248167919799499,0.0284944862155387
0.415,9.110232307692309,-3.3874676923076925,3.052267692307692,-0.0826,0.0003030769230769,0.0070830769230769,8.160554135338346,-3.3733383458646613,-3.679484962406015,-0.0314578947368421,-0.024809022556391,0.0285030075187969
0.416,9.11015846153846,-3.3875415384615386,3.0523415384615387,-0.0826,0.0003246153846153,0.0070646153846153,8.16052418546366,-3.373380325814536,-3.6795090225563913,-0.0314552631578947,-0.0248012531328321,0.028511528822055
0.417,9.110084615384617,-3.3876153846153847,3.0524153846153848,-0.0826,0.0003461538461538,0.0070461538461538,8.160494235588972,-3.3734223057644104,-3.6795330827067674,-0.0314526315789473,-0.0247934837092732,0.0285200501253131
0.418,9.110010769230769,-3.387689230769231,3.052489230769231,-0.0826,0.0003676923076923,0.0070276923076922,8.160464285714285,-3.3734642857142854,-3.6795571428571434,-0.03145,-0.0247857142857143,0.0285285714285713
0.419,9.109936923076924,-3.3877630769230773,3.052563076923077,-0.0826,0.0003892307692307,0.0070092307692307,8.1604343358396,-3.37350626566416,-3.679581203007519,-0.0314473684210526,-0.0247779448621554,0.0285370927318294
0.42,9.109863076923077,-3.3878369230769234,3.052636923076923,-0.0826,0.0004107692307692,0.0069907692307692,8.160404385964913,-3.3735482456140344,-3.679605263157894,-0.0314447368421052,-0.0247701754385965,0.0285456140350876
0.421,9.10978923076923,-3.387910769230769,3.052710769230769,-0.0826,0.0004323076923077,0.0069723076923076,8.160374436090226,-3.3735902255639094,-3.67962932330827,-0.0314421052631579,-0.0247624060150376,0.0285541353383457
0.422,9.109715384615384,-3.387984615384616,3.052784615384616,-0.0826,0.0004538461538461,0.0069538461538461,8.16034448621554,-3.373632205513784,-3.6796533834586462,-0.0314394736842105,-0.0247546365914787,0.0285626566416039
0.423,9.109641538461538,-3.3880584615384617,3.0528584615384617,-0.0826,0.0004753846153846,0.0069353846153846,8.160314536340852,-3.3736741854636585,-3.6796774436090223,-0.0314368421052631,-0.0247468671679198,0.028571177944862
0.424,9.109567692307692,-3.388132307692308,3.052932307692308,-0.0826,0.000496923076923,0.006916923076923,8.160284586466165,-3.373716165413533,-3.6797015037593983,-0.0314342105263158,-0.0247390977443609,0.0285796992481202
0.425,9.109493846153846,-3.388206153846154,3.053006153846154,-0.0826,0.0005184615384615,0.0068984615384615,8.160254636591478,-3.373758145363408,-3.679725563909774,-0.0314315789473684,-0.024731328320802,0.0285882205513783
0.426,9.10942,-3.3882800000000004,3.05308,-0.0826,0.00054,0.0068799999999999,8.160224686716793,-3.3738001253132825,-3.67974962406015,-0.031428947368421,-0.0247235588972431,0.0285967418546365
0.427,9.109346153846154,-3.3883538461538465,3.053153846153846,-0.0826,0.0005615384615384,0.0068615384615384,8.160194736842106,-3.373842105263157,-3.679773684210526,-0.0314263157894737,-0.0247157894736842,0.0286052631578946
0.428,9.109272307692308,-3.3884276923076926,3.053227692307692,-0.0826,0.0005830769230769,0.0068430769230769,8.16016478696742,-3.373884085213032,-3.679797744360902,-0.0314236842105263,-0.0247080200501253,0.0286137844611527
0.429,9.109198461538462,-3.3885015384615387,3.0533015384615387,-0.0826,0.0006046153846154,0.0068246153846153,8.160134837092732,-3.3739260651629066,-3.679821804511278,-0.0314210526315789,-0.0247002506265664,0.0286223057644109
0.43,9.109124615384616,-3.3885753846153848,3.053375384615385,-0.0826,0.0006261538461538,0.0068061538461538,8.160104887218045,-3.3739680451127816,-3.6798458646616536,-0.0314184210526316,-0.0246924812030076,0.028630827067669
0.431,9.10905076923077,-3.388649230769231,3.053449230769231,-0.0826,0.0006476923076923,0.0067876923076922,8.160074937343358,-3.374010025062656,-3.6798699248120297,-0.0314157894736842,-0.0246847117794487,0.0286393483709272
0.432,9.108976923076924,-3.388723076923077,3.053523076923077,-0.0826,0.0006692307692307,0.0067692307692307,8.160044987468671,-3.3740520050125307,-3.6798939849624057,-0.0314131578947368,-0.0246769423558898,0.0286478696741853
0.433,9.108903076923076,-3.3887969230769235,3.053596923076923,-0.0826,0.0006907692307692,0.0067507692307692,8.160015037593986,-3.3740939849624056,-3.6799180451127818,-0.0314105263157895,-0.0246691729323309,0.0286563909774435
0.434,9.108829230769231,-3.3888707692307696,3.053670769230769,-0.0826,0.0007123076923077,0.0067323076923076,8.1599850877193,-3.37413596491228,-3.679942105263157,-0.0314078947368421,-0.024661403508772,0.0286649122807016
0.435,9.108755384615383,-3.388944615384616,3.053744615384616,-0.0826,0.0007338461538461,0.0067138461538461,8.159955137844612,-3.3741779448621547,-3.679966165413533,-0.0314052631578947,-0.0246536340852131,0.0286734335839598
0.436,9.108681538461536,-3.3890184615384618,3.053818461538462,-0.0826,0.0007553846153846,0.0066953846153845,8.159925187969925,-3.3742199248120297,-3.679990225563909,-0.0314026315789474,-0.0246458646616542,0.0286819548872179
0.437,9.108607692307691,-3.389092307692308,3.053892307692308,-0.0826,0.0007769230769231,0.006676923076923,8.159895238095238,-3.374261904761904,-3.6800142857142855,-0.0314,-0.0246380952380953,0.0286904761904761
0.438,9.108533846153843,-3.389166153846154,3.053966153846154,-0.0826,0.0007984615384615,0.0066584615384615,8.159865288220551,-3.374303884711779,-3.6800383458646615,-0.0313973684210526,-0.0246303258145364,0.0286989974937342
0.439,9.10846,-3.38924,3.05404,-0.0826,0.00082,0.0066399999999999,8.159835338345864,-3.3743458646616538,-3.680062406015037,-0.0313947368421052,-0.0246225563909775,0.0287075187969923
0.44,9.108386153846151,-3.3893138461538466,3.054113846153846,-0.0826,0.0008415384615384,0.0066215384615384,8.159805388471177,-3.3743878446115283,-3.680086466165413,-0.0313921052631579,-0.0246147869674186,0.0287160401002505
0.441,9.108312307692309,-3.3893876923076927,3.0541876923076927,-0.0826,0.0008630769230769,0.0066030769230768,8.159775438596492,-3.374429824561403,-3.680110526315789,-0.0313894736842105,-0.0246070175438597,0.0287245614035086
0.442,9.10823846153846,-3.3894615384615387,3.054261538461539,-0.0826,0.0008846153846154,0.0065846153846153,8.159745488721805,-3.374471804511278,-3.680134586466165,-0.0313868421052631,-0.0245992481203008,0.0287330827067668
0.443,9.108164615384617,-3.389535384615385,3.054335384615385,-0.0826,0.0009061538461538,0.0065661538461538,8.159715538847118,-3.3745137844611524,-3.680158646616541,-0.0313842105263158,-0.0245914786967419,0.0287416040100249
0.444,9.108090769230769,-3.389609230769231,3.054409230769231,-0.0826,0.0009276923076923,0.0065476923076922,8.159685588972431,-3.374555764411027,-3.680182706766917,-0.0313815789473684,-0.024583709273183,0.0287501253132831
0.445,9.108016923076924,-3.389683076923077,3.054483076923077,-0.0826,0.0009492307692308,0.0065292307692307,8.159655639097744,-3.374597744360902,-3.680206766917293,-0.031378947368421,-0.0245759398496241,0.0287586466165412
0.446,9.107943076923076,-3.389756923076923,3.054556923076923,-0.0826,0.0009707692307692,0.0065107692307692,8.159625689223057,-3.3746397243107764,-3.680230827067669,-0.0313763157894737,-0.0245681704260652,0.0287671679197994
0.447,9.10786923076923,-3.3898307692307696,3.0546307692307697,-0.0826,0.0009923076923077,0.0064923076923076,8.15959573934837,-3.374681704260651,-3.680254887218045,-0.0313736842105263,-0.0245604010025063,0.0287756892230575
0.448,9.107795384615384,-3.389904615384616,3.054704615384616,-0.0826,0.0010138461538461,0.0064738461538461,8.159565789473685,-3.374723684210526,-3.680278947368421,-0.0313710526315789,-0.0245526315789474,0.0287842105263157
0.449,9.107721538461538,-3.389978461538462,3.054778461538462,-0.0826,0.0010353846153846,0.0064553846153845,8.159535839598998,-3.3747656641604005,-3.680303007518797,-0.0313684210526316,-0.0245448621553885,0.0287927318295738
0.45,9.107647692307692,-3.390052307692308,3.054852307692308,-0.0826,0.0010569230769231,0.006436923076923,8.159505889724311,-3.374807644110275,-3.6803270676691726,-0.0313657894736842,-0.0245370927318296,0.0288012531328319
0.451,9.107573846153846,-3.390126153846154,3.054926153846154,-0.0826,0.0010784615384615,0.0064184615384615,8.159475939849624,-3.37484962406015,-3.6803511278195487,-0.0313631578947368,-0.0245293233082707,0.0288097744360901
0.452,9.1075,-3.3902,3.055,-0.0826,0.0010999999999999,0.0063999999999999,8.159445989974937,-3.3748916040100245,-3.680375187969924,-0.0313605263157895,-0.0245215538847118,0.0288182957393482
0.453,9.1075,-3.3902,3.0550738461538463,-0.0826,0.0010892307692307,0.0063830769230768,8.15941604010025,-3.374933583959899,-3.6803992481203,-0.0313578947368421,-0.0245137844611529,0.0288268170426064
0.454,9.1075,-3.3902,3.055147692307693,-0.0826,0.0010784615384615,0.0063661538461538,8.159386090225563,-3.374975563909774,-3.680423308270676,-0.0313552631578947,-0.024506015037594,0.0288353383458645
0.455,9.1075,-3.3902,3.055221538461539,-0.0826,0.0010676923076922,0.0063492307692307,8.159356140350878,-3.3750175438596486,-3.680447368421053,-0.0313526315789473,-0.0244982456140351,0.0288438596491227
0.456,9.1075,-3.3902,3.055295384615385,-0.0826,0.001056923076923,0.0063323076923076,8.159326190476191,-3.375059523809523,-3.680471428571429,-0.03135,-0.0244904761904762,0.0288523809523808
0.457,9.1075,-3.3902,3.055369230769231,-0.0826,0.0010461538461538,0.0063153846153845,8.159296240601504,-3.375101503759398,-3.680495488721804,-0.0313473684210526,-0.0244827067669173,0.028860902255639
0.458,9.1075,-3.3902,3.055443076923077,-0.0826,0.0010353846153845,0.0062984615384615,8.159266290726817,-3.3751434837092726,-3.68051954887218,-0.0313447368421052,-0.0244749373433584,0.0288694235588971
0.459,9.1075,-3.3902,3.0555169230769232,-0.0826,0.0010246153846153,0.0062815384615384,8.15923634085213,-3.375185463659147,-3.680543609022556,-0.0313421052631579,-0.0244671679197995,0.0288779448621553
0.46,9.1075,-3.3902,3.0555907692307693,-0.0826,0.0010138461538461,0.0062646153846153,8.159206390977443,-3.375227443609022,-3.680567669172932,-0.0313394736842105,-0.0244593984962406,0.0288864661654134
0.461,9.1075,-3.3902,3.055664615384616,-0.0826,0.0010030769230769,0.0062476923076922,8.159176441102757,-3.3752694235588967,-3.680591729323308,-0.0313368421052631,-0.0244516290726817,0.0288949874686715
0.462,9.1075,-3.3902,3.055738461538462,-0.0826,0.0009923076923076,0.0062307692307691,8.159146491228071,-3.3753114035087712,-3.680615789473684,-0.0313342105263158,-0.0244438596491228,0.0289035087719297
0.463,9.1075,-3.3902,3.055812307692308,-0.0826,0.0009815384615384,0.0062138461538461,8.159116541353384,-3.375353383458646,-3.68063984962406,-0.0313315789473684,-0.0244360902255639,0.0289120300751878
0.464,9.1075,-3.3902,3.055886153846154,-0.0826,0.0009707692307692,0.006196923076923,8.159086591478697,-3.3753953634085208,-3.680663909774436,-0.031328947368421,-0.024428320802005,0.028920551378446
0.465,9.1075,-3.3902,3.05596,-0.0826,0.0009599999999999,0.0061799999999999,8.15905664160401,-3.375437343358396,-3.680687969924812,-0.0313263157894737,-0.0244205513784461,0.0289290726817041
0.466,9.1075,-3.3902,3.0560338461538463,-0.0826,0.0009492307692307,0.0061630769230768,8.159026691729323,-3.3754793233082703,-3.680712030075187,-0.0313236842105263,-0.0244127819548873,0.0289375939849623
0.467,9.1075,-3.3902,3.0561076923076924,-0.0826,0.0009384615384615,0.0061461538461538,8.158996741854637,-3.375521303258145,-3.680736090225564,-0.0313210526315789,-0.0244050125313284,0.0289461152882204
0.468,9.1075,-3.3902,3.056181538461539,-0.0826,0.0009276923076922,0.0061292307692307,8.15896679197995,-3.37556328320802,-3.68076015037594,-0.0313184210526316,-0.0243972431077695,0.0289546365914786
0.469,9.1075,-3.3902,3.056255384615385,-0.0826,0.000916923076923,0.0061123076923076,8.158936842105263,-3.3756052631578943,-3.680784210526316,-0.0313157894736842,-0.0243894736842106,0.0289631578947367
0.47,9.1075,-3.3902,3.056329230769231,-0.0826,0.0009061538461538,0.0060953846153845,8.158906892230577,-3.375647243107769,-3.680808270676692,-0.0313131578947368,-0.0243817042606517,0.0289716791979949
0.471,9.1075,-3.3902,3.056403076923077,-0.0826,0.0008953846153845,0.0060784615384614,8.15887694235589,-3.375689223057644,-3.680832330827067,-0.0313105263157895,-0.0243739348370928,0.028980200501253
0.472,9.1075,-3.3902,3.0564769230769238,-0.0826,0.0008846153846153,0.0060615384615384,8.158846992481203,-3.3757312030075184,-3.680856390977443,-0.0313078947368421,-0.0243661654135339,0.0289887218045111
0.473,9.1075,-3.3902,3.0565507692307694,-0.0826,0.0008738461538461,0.0060446153846153,8.158817042606517,-3.375773182957393,-3.6808804511278193,-0.0313052631578947,-0.024358395989975,0.0289972431077693
0.474,9.1075,-3.3902,3.0566246153846155,-0.0826,0.0008630769230768,0.0060276923076922,8.15878709273183,-3.375815162907268,-3.6809045112781953,-0.0313026315789473,-0.0243506265664161,0.0290057644110274
0.475,9.1075,-3.3902,3.056698461538462,-0.0826,0.0008523076923076,0.0060107692307691,8.158757142857143,-3.3758571428571424,-3.680928571428571,-0.0313,-0.0243428571428572,0.0290142857142856
0.476,9.1075,-3.3902,3.056772307692308,-0.0826,0.0008415384615384,0.0059938461538461,8.158727192982456,-3.375899122807017,-3.680952631578947,-0.0312973684210526,-0.0243350877192983,0.0290228070175437
0.477,9.1075,-3.3902,3.056846153846154,-0.0826,0.0008307692307692,0.005976923076923,8.15869724310777,-3.375941102756892,-3.680976691729323,-0.0312947368421052,-0.0243273182957394,0.0290313283208019
0.478,9.1075,-3.3902,3.0569200000000003,-0.0826,0.0008199999999999,0.0059599999999999,8.158667293233083,-3.3759830827067665,-3.681000751879699,-0.0312921052631579,-0.0243195488721805,0.02903984962406
0.479,9.1075,-3.3902,3.0569938461538464,-0.0826,0.0008092307692307,0.0059430769230768,8.158637343358397,-3.376025062656641,-3.681024812030075,-0.0312894736842105,-0.0243117794486216,0.0290483709273182
0.48,9.1075,-3.3902,3.0570676923076925,-0.0826,0.0007984615384615,0.0059261538461537,8.15860739348371,-3.376067042606516,-3.68104887218045,-0.0312868421052631,-0.0243040100250627,0.0290568922305763
0.481,9.1075,-3.3902,3.0571415384615386,-0.0826,0.0007876923076922,0.0059092307692307,8.158577443609023,-3.3761090225563906,-3.681072932330826,-0.0312842105263158,-0.0242962406015038,0.0290654135338344
0.482,9.1075,-3.3902,3.057215384615385,-0.0826,0.000776923076923,0.0058923076923076,8.158547493734336,-3.376151002506265,-3.6810969924812023,-0.0312815789473684,-0.0242884711779449,0.0290739348370926
0.483,9.1075,-3.3902,3.057289230769231,-0.0826,0.0007661538461538,0.0058753846153845,8.158517543859649,-3.37619298245614,-3.6811210526315783,-0.031278947368421,-0.024280701754386,0.0290824561403507
0.484,9.1075,-3.3902,3.0573630769230773,-0.0826,0.0007553846153845,0.0058584615384614,8.158487593984963,-3.3762349624060146,-3.6811451127819534,-0.0312763157894737,-0.0242729323308271,0.0290909774436089
0.485,9.1075,-3.3902,3.0574369230769234,-0.0826,0.0007446153846153,0.0058415384615384,8.158457644110277,-3.376276942355889,-3.6811691729323295,-0.0312736842105263,-0.0242651629072682,0.029099498746867
0.486,9.1075,-3.3902,3.057510769230769,-0.0826,0.0007338461538461,0.0058246153846153,8.15842769423559,-3.376318922305764,-3.6811932330827055,-0.0312710526315789,-0.0242573934837093,0.0291080200501252
0.487,9.1075,-3.3902,3.057584615384616,-0.0826,0.0007230769230768,0.0058076923076922,8.158397744360903,-3.3763609022556387,-3.6812172932330816,-0.0312684210526316,-0.0242496240601504,0.0291165413533833
0.488,9.1075,-3.3902,3.0576584615384617,-0.0826,0.0007123076923076,0.0057907692307691,8.158367794486216,-3.376402882205513,-3.6812413533834585,-0.0312657894736842,-0.0242418546365915,0.0291250626566415
0.489,9.1075,-3.3902,3.057732307692308,-0.0826,0.0007015384615384,0.0057738461538461,8.158337844611529,-3.376444862155388,-3.681265413533834,-0.0312631578947368,-0.0242340852130326,0.0291335839598996
0.49,9.1075,-3.3902,3.0578061538461543,-0.0826,0.0006907692307691,0.005756923076923,8.158307894736842,-3.3764868421052627,-3.68128947368421,-0.0312605263157895,-0.0242263157894737,0.0291421052631578
0.491,9.1075,-3.3902,3.0578800000000004,-0.0826,0.0006799999999999,0.0057399999999999,8.158277944862157,-3.3765288220551373,-3.681313533834586,-0.0312578947368421,-0.0242185463659148,0.0291506265664159
0.492,9.1075,-3.3902,3.0579538461538465,-0.0826,0.0006692307692307,0.0057230769230768,8.15824799498747,-3.3765708020050123,-3.681337593984962,-0.0312552631578947,-0.0242107769423559,0.029159147869674
0.493,9.1075,-3.3902,3.058027692307693,-0.0826,0.0006584615384615,0.0057061538461537,8.158218045112783,-3.376612781954887,-3.681361654135338,-0.0312526315789473,-0.024203007518797,0.0291676691729322
0.494,9.1075,-3.3902,3.058101538461538,-0.0826,0.0006476923076922,0.0056892307692307,8.158188095238096,-3.3766547619047613,-3.681385714285714,-0.03125,-0.0241952380952381,0.0291761904761903
0.495,9.1075,-3.3902,3.058175384615385,-0.0826,0.000636923076923,0.0056723076923076,8.158158145363409,-3.3766967418546363,-3.68140977443609,-0.0312473684210526,-0.0241874686716792,0.0291847117794485
0.496,9.1075,-3.3902,3.0582492307692317,-0.0826,0.0006261538461538,0.0056553846153845,8.158128195488722,-3.376738721804511,-3.681433834586466,-0.0312447368421052,-0.0241796992481203,0.0291932330827066
0.497,9.1075,-3.3902,3.0583230769230774,-0.0826,0.0006153846153845,0.0056384615384614,8.158098245614035,-3.3767807017543854,-3.681457894736842,-0.0312421052631579,-0.0241719298245614,0.0292017543859648
0.498,9.1075,-3.3902,3.0583969230769235,-0.0826,0.0006046153846153,0.0056215384615384,8.158068295739348,-3.3768226817042604,-3.6814819548872175,-0.0312394736842105,-0.0241641604010025,0.0292102756892229
0.499,9.1075,-3.3902,3.058470769230769,-0.0826,0.0005938461538461,0.0056046153846153,8.158038345864663,-3.376864661654135,-3.6815060150375936,-0.0312368421052631,-0.0241563909774436,0.0292187969924811
0.5,9.1075,-3.3902,3.058544615384616,-0.0826,0.0005830769230768,0.0055876923076922,8.158008395989976,-3.376906641604009,-3.6815300751879696,-0.0312342105263158,-0.0241486215538847,0.0292273182957392
0.501,9.1075,-3.3902,3.0586184615384617,-0.0826,0.0005723076923076,0.0055707692307691,8.157978446115289,-3.3769486215538844,-3.6815541353383456,-0.0312315789473684,-0.0241408521303258,0.0292358395989974
0.502,9.1075,-3.3902,3.0586923076923083,-0.0826,0.0005615384615384,0.005553846153846,8.157948496240602,-3.376990601503759,-3.6815781954887217,-0.031228947368421,-0.024133082706767,0.0292443609022555
0.503,9.1075,-3.3902,3.0587661538461544,-0.0826,0.0005507692307691,0.005536923076923,8.157918546365915,-3.377032581453633,-3.681602255639097,-0.0312263157894737,-0.0241253132832081,0.0292528822055136
0.504,9.1075,-3.3902,3.0588400000000004,-0.0826,0.0005399999999999,0.0055199999999999,8.157888596491228,-3.3770745614035085,-3.681626315789473,-0.0312236842105263,-0.0241175438596492,0.0292614035087718
0.505,9.1075,-3.3902,3.0589138461538465,-0.0826,0.0005292307692307,0.0055030769230768,8.15785864661654,-3.377116541353383,-3.681650375939849,-0.0312210526315789,-0.0241097744360903,0.0292699248120299
0.506,9.1075,-3.3902,3.0589876923076926,-0.0826,0.0005184615384614,0.0054861538461537,8.157828696741856,-3.3771585213032576,-3.681674436090226,-0.0312184210526316,-0.0241020050125314,0.0292784461152881
0.507,9.1075,-3.3902,3.0590615384615387,-0.0826,0.0005076923076922,0.0054692307692307,8.157798746867169,-3.3772005012531325,-3.681698496240601,-0.0312157894736842,-0.0240942355889725,0.0292869674185462
0.508,9.1075,-3.3902,3.059135384615385,-0.0826,0.000496923076923,0.0054523076923076,8.157768796992482,-3.377242481203007,-3.681722556390977,-0.0312131578947368,-0.0240864661654136,0.0292954887218044
0.509,9.1075,-3.3902,3.059209230769232,-0.0826,0.0004861538461538,0.0054353846153845,8.157738847117795,-3.3772844611528816,-3.681746616541353,-0.0312105263157895,-0.0240786967418547,0.0293040100250625
0.51,9.1075,-3.3902,3.059283076923077,-0.0826,0.0004753846153845,0.0054184615384614,8.157708897243108,-3.3773264411027566,-3.681770676691729,-0.0312078947368421,-0.0240709273182958,0.0293125313283207
0.511,9.1075,-3.3902,3.0593569230769235,-0.0826,0.0004646153846153,0.0054015384615383,8.15767894736842,-3.377368421052631,-3.681794736842105,-0.0312052631578947,-0.0240631578947369,0.0293210526315788
0.512,9.1075,-3.3902,3.0594307692307696,-0.0826,0.0004538461538461,0.0053846153846153,8.157648997493734,-3.3774104010025057,-3.6818187969924807,-0.0312026315789473,-0.024055388471178,0.029329573934837
0.513,9.1075,-3.3902,3.059504615384616,-0.0826,0.0004430769230768,0.0053676923076922,8.157619047619049,-3.3774523809523807,-3.6818428571428568,-0.0312,-0.0240476190476191,0.0293380952380951
0.514,9.1075,-3.3902,3.059578461538462,-0.0826,0.0004323076923076,0.0053507692307691,8.157589097744362,-3.377494360902255,-3.681866917293233,-0.0311973684210526,-0.0240398496240602,0.0293466165413532
0.515,9.1075,-3.3902,3.059652307692308,-0.0826,0.0004215384615384,0.005333846153846,8.157559147869675,-3.3775363408521297,-3.681890977443609,-0.0311947368421052,-0.0240320802005013,0.0293551378446114
0.516,9.1075,-3.3902,3.0597261538461544,-0.0826,0.0004107692307691,0.005316923076923,8.157529197994988,-3.3775783208020047,-3.681915037593984,-0.0311921052631579,-0.0240243107769424,0.0293636591478695
0.517,9.1075,-3.3902,3.0598000000000005,-0.0826,0.0003999999999998,0.0052999999999997,8.1574992481203,-3.3776203007518792,-3.681939097744361,-0.0311894736842105,-0.0240165413533835,0.0293721804511277
0.518,9.107575,-3.3902,3.0599500000000006,-0.0826046875,0.0003749999999998,0.0052374999999997,8.157469298245614,-3.377662280701754,-3.681963157894737,-0.0311868421052631,-0.0240087719298246,0.0293807017543858
0.519,9.10765,-3.3902,3.0601000000000007,-0.082609375,0.0003499999999998,0.0051749999999997,8.157439348370927,-3.3777042606516288,-3.681987218045113,-0.0311842105263158,-0.0240010025062657,0.029389223057644
0.52,9.107725,-3.3902,3.060250000000001,-0.0826140625,0.0003249999999998,0.0051124999999997,8.157409398496242,-3.3777462406015037,-3.682011278195489,-0.0311815789473684,-0.0239932330827068,0.0293977443609021
0.521,9.1078,-3.3902,3.060400000000001,-0.08261875,0.0002999999999998,0.0050499999999997,8.157379448621555,-3.377788220551378,-3.682035338345864,-0.031178947368421,-0.0239854636591479,0.0294062656641603
0.522,9.107875,-3.3902,3.0605500000000005,-0.0826234375,0.0002749999999998,0.0049874999999997,8.157349498746868,-3.377830200501253,-3.68205939849624,-0.0311763157894737,-0.023977694235589,0.0294147869674184
0.523,9.10795,-3.3902,3.0607000000000006,-0.082628125,0.0002499999999998,0.0049249999999997,8.15731954887218,-3.377872180451128,-3.682083458646616,-0.0311736842105263,-0.0239699248120301,0.0294233082706766
0.524,9.108025,-3.3902,3.0608500000000007,-0.0826328125,0.0002249999999998,0.0048624999999996,8.157289598997494,-3.377914160401002,-3.682107518796992,-0.0311710526315789,-0.0239621553884712,0.0294318295739347
0.525,9.1081,-3.3902,3.061000000000001,-0.0826375,0.0001999999999998,0.0047999999999996,8.157259649122807,-3.377956140350877,-3.682131578947368,-0.0311684210526316,-0.0239543859649123,0.0294403508771928
0.526,9.108175,-3.3902,3.061150000000001,-0.0826421875,0.0001749999999998,0.0047374999999996,8.15722969924812,-3.3779981203007514,-3.682155639097744,-0.0311657894736842,-0.0239466165413534,0.029448872180451
0.527,9.10825,-3.3902,3.061300000000001,-0.082646875,0.0001499999999998,0.0046749999999996,8.157199749373433,-3.378040100250626,-3.68217969924812,-0.0311631578947368,-0.0239388471177945,0.0294573934837091
0.528,9.108325,-3.3902,3.0614500000000007,-0.0826515625,0.0001249999999998,0.0046124999999996,8.157169799498748,-3.378082080200501,-3.682203759398496,-0.0311605263157895,-0.0239310776942356,0.0294659147869673
0.529,9.1084,-3.3902,3.0616000000000008,-0.08265625,9.999999999986405e-05,0.0045499999999996,8.15713984962406,-3.3781240601503755,-3.682227819548872,-0.0311578947368421,-0.0239233082706767,0.0294744360902254
0.53,9.108475,-3.3902,3.061750000000001,-0.0826609375,7.499999999986126e-05,0.0044874999999996,8.157109899749374,-3.37816604010025,-3.682251879699248,-0.0311552631578947,-0.0239155388471178,0.0294829573934836
0.531,9.10855,-3.3902,3.061900000000001,-0.082665625,4.999999999985848e-05,0.0044249999999996,8.157079949874687,-3.378208020050125,-3.682275939849624,-0.0311526315789473,-0.0239077694235589,0.0294914786967417
0.532,9.108625,-3.3902,3.062050000000001,-0.0826703125,2.4999999999855704e-05,0.0043624999999996,8.15705,-3.3782499999999995,-3.6823,-0.03115,-0.0239,0.0294999999999999
0.533,9.1087,-3.3902,3.0622000000000007,-0.082675,-1.4707202469765868e-16,0.0042999999999996,8.157020050125313,-3.378291979949874,-3.682324060150376,-0.0311473684210526,-0.0238922305764411,0.029508521303258
0.534,9.108775,-3.3902,3.062350000000001,-0.0826796875,-2.5000000000149848e-05,0.0042374999999996,8.156990100250626,-3.378333959899749,-3.6823481203007513,-0.0311447368421052,-0.0238844611528822,0.0295170426065162
0.535,9.10885,-3.3902,3.062500000000001,-0.082684375,-5.0000000000152624e-05,0.0041749999999996,8.15696015037594,-3.378375939849624,-3.682372180451128,-0.0311421052631579,-0.0238766917293233,0.0295255639097743
0.536,9.108925,-3.3902,3.062650000000001,-0.0826890625,-7.50000000001554e-05,0.0041124999999996,8.156930200501254,-3.378417919799498,-3.682396240601504,-0.0311394736842105,-0.0238689223057644,0.0295340852130324
0.537,9.109,-3.3902,3.062800000000001,-0.08269375,-0.0001000000000001,0.0040499999999996,8.156900250626567,-3.378459899749373,-3.68242030075188,-0.0311368421052631,-0.0238611528822055,0.0295426065162906
0.538,9.109075,-3.3902,3.062950000000001,-0.0826984375,-0.0001250000000001,0.0039874999999995,8.15687030075188,-3.378501879699248,-3.682444360902256,-0.0311342105263158,-0.0238533834586467,0.0295511278195487
0.539,9.10915,-3.3902,3.063100000000001,-0.082703125,-0.0001500000000001,0.0039249999999995,8.156840350877193,-3.378543859649122,-3.682468421052631,-0.0311315789473684,-0.0238456140350878,0.0295596491228069
0.54,9.109225,-3.3902,3.063250000000001,-0.0827078125,-0.0001750000000001,0.0038624999999995,8.156810401002506,-3.378585839598997,-3.682492481203007,-0.031128947368421,-0.0238378446115289,0.029568170426065
0.541,9.1093,-3.3902,3.063400000000001,-0.0827125,-0.0002000000000001,0.0037999999999995,8.156780451127819,-3.378627819548872,-3.682516541353383,-0.0311263157894737,-0.02383007518797,0.0295766917293232
0.542,9.109375,-3.3902,3.063550000000001,-0.0827171875,-0.0002250000000001,0.0037374999999995,8.156750501253134,-3.3786697994987462,-3.682540601503759,-0.0311236842105263,-0.0238223057644111,0.0295852130325813
0.543,9.10945,-3.3902,3.063700000000001,-0.082721875,-0.0002500000000001,0.0036749999999995,8.156720551378447,-3.378711779448621,-3.682564661654135,-0.0311210526315789,-0.0238145363408522,0.0295937343358395
0.544,9.109525,-3.3902,3.063850000000001,-0.0827265625,-0.0002750000000001,0.0036124999999995,8.15669060150376,-3.378753759398496,-3.682588721804511,-0.0311184210526316,-0.0238067669172933,0.0296022556390976
0.545,9.1096,-3.3902,3.064000000000001,-0.08273125,-0.0003000000000001,0.0035499999999995,8.156660651629073,-3.3787957393483703,-3.682612781954887,-0.0311157894736842,-0.0237989974937344,0.0296107769423558
0.546,9.109675,-3.3902,3.064150000000001,-0.0827359375,-0.0003250000000001,0.0034874999999995,8.156630701754386,-3.3788377192982453,-3.682636842105263,-0.0311131578947368,-0.0237912280701755,0.0296192982456139
0.547,9.10975,-3.3902,3.064300000000001,-0.082740625,-0.0003500000000001,0.0034249999999995,8.156600751879699,-3.37887969924812,-3.682660902255639,-0.0311105263157895,-0.0237834586466166,0.029627819548872
0.548,9.109825,-3.3902,3.064450000000001,-0.0827453125,-0.0003750000000001,0.0033624999999995,8.156570802005012,-3.3789216791979944,-3.6826849624060154,-0.0311078947368421,-0.0237756892230577,0.0296363408521302
0.549,9.1099,-3.3902,3.0646000000000013,-0.08275,-0.0004000000000001,0.0032999999999995,8.156540852130327,-3.3789636591478693,-3.682709022556391,-0.0311052631578947,-0.0237679197994988,0.0296448621553883
0.55,9.109975,-3.3902,3.064750000000001,-0.0827546875,-0.0004250000000001,0.0032374999999995,8.15651090225564,-3.379005639097744,-3.682733082706767,-0.0311026315789473,-0.0237601503759399,0.0296533834586465
0.551,9.11005,-3.3902,3.064900000000001,-0.082759375,-0.0004500000000001,0.0031749999999995,8.156480952380953,-3.3790476190476184,-3.682757142857143,-0.0311,-0.023752380952381,0.0296619047619046
0.552,9.110125,-3.3902,3.065050000000001,-0.0827640625,-0.0004750000000001,0.0031124999999995,8.156451002506266,-3.3790895989974934,-3.682781203007519,-0.0310973684210526,-0.0237446115288221,0.0296704260651628
0.553,9.1102,-3.3902,3.0652000000000013,-0.08276875,-0.0005000000000002,0.0030499999999994,8.156421052631579,-3.379131578947368,-3.6828052631578942,-0.0310947368421052,-0.0237368421052632,0.0296789473684209
0.554,9.110275,-3.3902,3.0653500000000014,-0.0827734375,-0.0005250000000002,0.0029874999999994,8.156391102756892,-3.3791735588972425,-3.6828293233082703,-0.0310921052631579,-0.0237290726817043,0.0296874686716791
0.555,9.11035,-3.3902,3.065500000000001,-0.082778125,-0.0005500000000002,0.0029249999999994,8.156361152882205,-3.379215538847117,-3.6828533834586463,-0.0310894736842105,-0.0237213032581454,0.0296959899749372
