Time,ACCx_taR,ACCy_taR,ACCz_taR,GYRx_taR,GYRy_taR,GYRz_taR,ACCx_taL,ACCy_taL,ACCz_taL,GYRx_taL,GYRy_taL,GYRz_taL
0.0,8.5186,-4.6735,3.055,-0.0755,0.0019,-0.06,8.1403,-3.5243,-3.6152,-0.039,-0.0213,0.0047
0.001,8.519273437499999,-4.6726015625,3.0547,-0.075390625,0.001853125,-0.0607281249999999,8.140421319796955,-3.523983756345178,-3.61517614213198,-0.0390177664974619,-0.0213086294416243,0.0046903553299492
0.002,8.519946874999999,-4.671703125,3.0544,-0.07528125,0.00180625,-0.06145625,8.140542639593908,-3.523667512690356,-3.61515228426396,-0.0390355329949238,-0.0213172588832487,0.0046807106598984
0.003,8.5206203125,-4.6708046875,3.0541,-0.075171875,0.001759375,-0.0621843749999999,8.140663959390864,-3.5233512690355333,-3.6151284263959393,-0.0390532994923857,-0.021325888324873,0.0046710659898477
0.004,8.52129375,-4.66990625,3.0538000000000003,-0.0750625,0.0017125,-0.0629125,8.140785279187817,-3.523035025380711,-3.615104568527919,-0.0390710659898477,-0.0213345177664974,0.0046614213197969
0.005,8.5219671875,-4.669007812499999,3.0535,-0.074953125,0.001665625,-0.0636406249999999,8.140906598984772,-3.5227187817258887,-3.6150807106598983,-0.0390888324873096,-0.0213431472081218,0.0046517766497461
0.006,8.522640625,-4.668109374999999,3.0532000000000004,-0.07484375,0.00161875,-0.0643687499999999,8.141027918781726,-3.5224025380710664,-3.6150568527918794,-0.0391065989847715,-0.0213517766497461,0.0046421319796954
0.007,8.523314062499999,-4.6672109375,3.0529,-0.074734375,0.001571875,-0.065096875,8.14114923857868,-3.522086294416244,-3.615032994923858,-0.0391243654822335,-0.0213604060913705,0.0046324873096446
0.008,8.523987499999999,-4.6663125,3.0526,-0.074625,0.001525,-0.065825,8.141270558375634,-3.5217700507614214,-3.615009137055838,-0.0391421319796954,-0.0213690355329949,0.0046228426395939
0.009,8.5246609375,-4.6654140625,3.0523,-0.074515625,0.001478125,-0.0665531249999999,8.14139187817259,-3.521453807106599,-3.6149852791878176,-0.0391598984771573,-0.0213776649746192,0.0046131979695431
0.01,8.525334375,-4.664515625,3.052,-0.07440625,0.00143125,-0.0672812499999999,8.141513197969543,-3.5211375634517768,-3.614961421319797,-0.0391776649746192,-0.0213862944162436,0.0046035532994923
0.011,8.5260078125,-4.6636171875,3.0517000000000003,-0.074296875,0.001384375,-0.0680093749999999,8.141634517766498,-3.5208213197969545,-3.6149375634517766,-0.0391954314720812,-0.021394923857868,0.0045939086294416
0.012,8.52668125,-4.66271875,3.0514,-0.0741875,0.0013375,-0.0687374999999999,8.141755837563451,-3.520505076142132,-3.614913705583757,-0.0392131979695431,-0.0214035532994923,0.0045842639593908
0.013,8.527354687499999,-4.6618203125,3.0511,-0.074078125,0.001290625,-0.0694656249999999,8.141877157360407,-3.52018883248731,-3.614889847715736,-0.039230964467005,-0.0214121827411167,0.0045746192893401
0.014,8.528028124999999,-4.660921875,3.0508,-0.07396875,0.00124375,-0.0701937499999999,8.14199847715736,-3.5198725888324875,-3.614865989847716,-0.039248730964467,-0.0214208121827411,0.0045649746192893
0.015,8.5287015625,-4.6600234375,3.0505,-0.073859375,0.001196875,-0.070921875,8.142119796954315,-3.519556345177665,-3.614842131979696,-0.0392664974619289,-0.0214294416243654,0.0045553299492385
0.016,8.529375,-4.659125,3.0502,-0.07375,0.00115,-0.0716499999999999,8.142241116751268,-3.519240101522843,-3.6148182741116752,-0.0392842639593908,-0.0214380710659898,0.0045456852791878
0.017,8.5300484375,-4.6582265625,3.0499,-0.073640625,0.001103125,-0.0723781249999999,8.142362436548224,-3.5189238578680206,-3.614794416243655,-0.0393020304568527,-0.0214467005076142,0.004536040609137
0.018,8.530721875,-4.657328124999999,3.0496000000000003,-0.07353125,0.00105625,-0.0731062499999999,8.142483756345177,-3.5186076142131983,-3.614770558375634,-0.0393197969543147,-0.0214553299492385,0.0045263959390862
0.019,8.531395312499999,-4.656429687499999,3.0493,-0.073421875,0.001009375,-0.0738343749999999,8.142605076142132,-3.518291370558376,-3.6147467005076144,-0.0393375634517766,-0.0214639593908629,0.0045167512690355
0.02,8.532068749999999,-4.65553125,3.049,-0.0733125,0.0009625,-0.0745624999999999,8.142726395939086,-3.5179751269035537,-3.614722842639594,-0.0393553299492385,-0.0214725888324873,0.0045071065989847
0.021,8.5327421875,-4.6546328125,3.0487,-0.073203125,0.000915625,-0.0752906249999999,8.14284771573604,-3.5176588832487314,-3.614698984771574,-0.0393730964467005,-0.0214812182741116,0.004497461928934
0.022,8.533415625,-4.653734375,3.0484,-0.07309375,0.00086875,-0.0760187499999999,8.142969035532994,-3.517342639593909,-3.6146751269035535,-0.0393908629441624,-0.021489847715736,0.0044878172588832
0.023,8.5340890625,-4.6528359375,3.0481000000000003,-0.072984375,0.000821875,-0.0767468749999999,8.14309035532995,-3.5170263959390864,-3.614651269035533,-0.0394086294416243,-0.0214984771573604,0.0044781725888324
0.024,8.5347625,-4.6519375,3.0478,-0.072875,0.000775,-0.0774749999999999,8.143211675126903,-3.516710152284264,-3.614627411167513,-0.0394263959390862,-0.0215071065989847,0.0044685279187817
0.025,8.535435937499999,-4.6510390625,3.0475000000000003,-0.072765625,0.000728125,-0.0782031249999999,8.143332994923858,-3.516393908629442,-3.6146035532994927,-0.0394441624365482,-0.0215157360406091,0.0044588832487309
0.026,8.536109374999999,-4.650140625,3.0472,-0.07265625,0.00068125,-0.0789312499999999,8.143454314720811,-3.5160776649746195,-3.614579695431472,-0.0394619289340101,-0.0215243654822335,0.0044492385786802
0.027,8.5367828125,-4.6492421875,3.0469,-0.072546875,0.000634375,-0.0796593749999999,8.143575634517767,-3.515761421319797,-3.614555837563452,-0.039479695431472,-0.0215329949238578,0.0044395939086294
0.028,8.53745625,-4.64834375,3.0466,-0.0724375,0.0005875,-0.0803874999999999,8.14369695431472,-3.515445177664975,-3.614531979695432,-0.039497461928934,-0.0215416243654822,0.0044299492385786
0.029,8.5381296875,-4.6474453125,3.0463,-0.072328125,0.000540625,-0.0811156249999999,8.143818274111675,-3.5151289340101526,-3.614508121827412,-0.0395152284263959,-0.0215502538071065,0.0044203045685279
0.03,8.538803125,-4.646546874999999,3.0460000000000003,-0.07221875,0.00049375,-0.0818437499999999,8.143939593908629,-3.5148126903553303,-3.614484263959391,-0.0395329949238578,-0.0215588832487309,0.0044106598984771
0.031,8.539476562499999,-4.645648437499999,3.0457,-0.072109375,0.000446875,-0.0825718749999999,8.144060913705584,-3.514496446700508,-3.6144604060913705,-0.0395507614213197,-0.0215675126903553,0.0044010152284264
0.032,8.540149999999999,-4.64475,3.0454000000000003,-0.072,0.0004,-0.0832999999999999,8.144182233502537,-3.5141802030456857,-3.6144365482233503,-0.0395685279187817,-0.0215761421319796,0.0043913705583756
0.033,8.5408234375,-4.6438515625,3.0451,-0.071890625,0.000353125,-0.0840281249999999,8.144303553299492,-3.5138639593908634,-3.61441269035533,-0.0395862944162436,-0.021584771573604,0.0043817258883248
0.034,8.541496875,-4.642953125,3.0448,-0.07178125,0.00030625,-0.0847562499999999,8.144424873096446,-3.513547715736041,-3.6143888324873097,-0.0396040609137055,-0.0215934010152284,0.0043720812182741
0.035,8.5421703125,-4.6420546875,3.0445,-0.071671875,0.000259375,-0.0854843749999999,8.1445461928934,-3.5132314720812188,-3.6143649746192894,-0.0396218274111675,-0.0216020304568527,0.0043624365482233
0.036,8.54284375,-4.64115625,3.0442,-0.0715625,0.0002125,-0.0862124999999999,8.144667512690354,-3.5129152284263965,-3.614341116751269,-0.0396395939086294,-0.0216106598984771,0.0043527918781725
0.037,8.543517187499999,-4.6402578125,3.0439000000000003,-0.071453125,0.000165625,-0.0869406249999999,8.14478883248731,-3.512598984771574,-3.614317258883249,-0.0396573604060913,-0.0216192893401015,0.0043431472081218
0.038,8.544190625,-4.639359375,3.0436,-0.07134375,0.00011875,-0.0876687499999999,8.144910152284263,-3.5122827411167514,-3.614293401015229,-0.0396751269035532,-0.0216279187817258,0.004333502538071
0.039,8.5448640625,-4.6384609375,3.0433,-0.071234375,7.187500000000163e-05,-0.0883968749999999,8.145031472081218,-3.511966497461929,-3.614269543147208,-0.0396928934010152,-0.0216365482233502,0.0043238578680203
0.04,8.5455375,-4.6375625,3.043,-0.071125,2.5000000000001583e-05,-0.0891249999999999,8.145152791878171,-3.511650253807107,-3.614245685279188,-0.0397106598984771,-0.0216451776649746,0.0043142131979695
0.041,8.5462109375,-4.6366640625,3.0427,-0.071015625,-2.1874999999998455e-05,-0.0898531249999999,8.145274111675127,-3.5113340101522845,-3.614221827411168,-0.039728426395939,-0.0216538071065989,0.0043045685279187
0.042,8.546884375,-4.635765625,3.0424,-0.07090625,-6.874999999999828e-05,-0.0905812499999999,8.14539543147208,-3.5110177664974622,-3.614197969543147,-0.039746192893401,-0.0216624365482233,0.004294923857868
0.043,8.5475578125,-4.634867187499999,3.0421,-0.070796875,-0.0001156249999999,-0.0913093749999999,8.145516751269035,-3.51070152284264,-3.614174111675127,-0.0397639593908629,-0.0216710659898477,0.0042852791878172
0.044,8.54823125,-4.633968749999999,3.0418000000000003,-0.0706875,-0.0001624999999999,-0.0920374999999999,8.14563807106599,-3.5103852791878176,-3.614150253807107,-0.0397817258883248,-0.021679695431472,0.0042756345177665
0.045,8.5489046875,-4.6330703125,3.0415,-0.070578125,-0.0002093749999999,-0.0927656249999999,8.145759390862944,-3.5100690355329958,-3.614126395939087,-0.0397994923857867,-0.0216883248730964,0.0042659898477157
0.046,8.549578125,-4.632171875,3.0412,-0.07046875,-0.0002562499999999,-0.0934937499999999,8.145880710659899,-3.509752791878173,-3.6141025380710654,-0.0398172588832487,-0.0216969543147208,0.0042563451776649
0.047,8.5502515625,-4.6312734375,3.0409,-0.070359375,-0.0003031249999999,-0.0942218749999999,8.146002030456852,-3.5094365482233507,-3.614078680203046,-0.0398350253807106,-0.0217055837563451,0.0042467005076142
0.048,8.550925,-4.630375,3.0406,-0.07025,-0.0003499999999999,-0.0949499999999999,8.146123350253808,-3.5091203045685284,-3.6140548223350257,-0.0398527918781725,-0.0217142131979695,0.0042370558375634
0.049,8.5515984375,-4.6294765625,3.0403,-0.070140625,-0.0003968749999999,-0.0956781249999999,8.146244670050761,-3.508804060913706,-3.614030964467005,-0.0398705583756345,-0.0217228426395939,0.0042274111675126
0.05,8.552271875,-4.628578125,3.04,-0.07003125,-0.0004437499999999,-0.0964062499999999,8.146365989847716,-3.508487817258884,-3.6140071065989847,-0.0398883248730964,-0.0217314720812182,0.0042177664974619
0.051,8.5529453125,-4.6276796875,3.0397000000000003,-0.069921875,-0.0004906249999999,-0.0971343749999999,8.14648730964467,-3.508171573604061,-3.613983248730965,-0.0399060913705583,-0.0217401015228426,0.0042081218274111
0.052,8.55361875,-4.62678125,3.0394,-0.0698125,-0.0005374999999999,-0.0978624999999999,8.146608629441625,-3.507855329949239,-3.613959390862944,-0.0399238578680202,-0.021748730964467,0.0041984771573604
0.053,8.5542921875,-4.6258828125,3.0391,-0.069703125,-0.0005843749999999,-0.0985906249999999,8.146729949238578,-3.5075390862944165,-3.613935532994924,-0.0399416243654822,-0.0217573604060913,0.0041888324873096
0.054,8.554965625,-4.624984375,3.0388,-0.06959375,-0.0006312499999999,-0.0993187499999999,8.146851269035533,-3.507222842639594,-3.613911675126904,-0.0399593908629441,-0.0217659898477157,0.0041791878172588
0.055,8.5556390625,-4.624085937499999,3.0385,-0.069484375,-0.0006781249999999,-0.1000468749999999,8.146972588832487,-3.506906598984772,-3.6138878172588833,-0.039977157360406,-0.02177461928934,0.0041695431472081
0.056,8.5563125,-4.623187499999999,3.0382,-0.069375,-0.0007249999999999,-0.1007749999999999,8.147093908629442,-3.5065903553299496,-3.613863959390863,-0.039994923857868,-0.0217832487309644,0.0041598984771573
0.057,8.5569859375,-4.6222890625,3.0379,-0.069265625,-0.0007718749999999,-0.1015031249999999,8.147215228426395,-3.5062741116751277,-3.6138401015228423,-0.0400126903553299,-0.0217918781725888,0.0041502538071066
0.058,8.557659375,-4.621390625,3.0376000000000003,-0.06915625,-0.0008187499999999,-0.1022312499999999,8.14733654822335,-3.505957868020305,-3.6138162436548233,-0.0400304568527918,-0.0218005076142131,0.0041406091370558
0.059,8.5583328125,-4.6204921875,3.0373,-0.069046875,-0.0008656249999999,-0.1029593749999999,8.147457868020304,-3.5056416243654827,-3.613792385786802,-0.0400482233502537,-0.0218091370558375,0.004130964467005
0.06,8.55900625,-4.61959375,3.037,-0.0689375,-0.0009124999999999,-0.1036874999999999,8.147579187817259,-3.5053253807106604,-3.613768527918782,-0.0400659898477157,-0.0218177664974619,0.0041213197969543
0.061,8.5596796875,-4.6186953125,3.0367,-0.068828125,-0.0009593749999999,-0.1044156249999999,8.147700507614212,-3.505009137055838,-3.6137446700507616,-0.0400837563451776,-0.0218263959390862,0.0041116751269035
0.062,8.560353125,-4.617796875,3.0364,-0.06871875,-0.0010062499999999,-0.1051437499999999,8.147821827411168,-3.504692893401016,-3.613720812182741,-0.0401015228426395,-0.0218350253807106,0.0041020304568528
0.063,8.5610265625,-4.6168984375,3.0361,-0.068609375,-0.0010531249999999,-0.1058718749999999,8.147943147208121,-3.504376649746193,-3.613696954314721,-0.0401192893401015,-0.021843654822335,0.004092385786802
0.064,8.5617,-4.616,3.0358,-0.0685,-0.0010999999999999,-0.1065999999999999,8.148064467005076,-3.504060406091371,-3.6136730964467008,-0.0401370558375634,-0.0218522842639593,0.0040827411167512
0.065,8.562509230769232,-4.613716923076923,3.036169230769231,-0.0683938461538461,-0.0011384615384615,-0.1067076923076923,8.14818578680203,-3.503744162436549,-3.613649238578681,-0.0401548223350253,-0.0218609137055837,0.0040730964467005
0.066,8.563318461538461,-4.6114338461538456,3.0365384615384614,-0.0682876923076923,-0.001176923076923,-0.1068153846153846,8.148307106598985,-3.5034279187817265,-3.61362538071066,-0.0401725888324872,-0.0218695431472081,0.0040634517766497
0.067,8.564127692307693,-4.6091507692307685,3.0369076923076923,-0.0681815384615384,-0.0012153846153846,-0.1069230769230769,8.148428426395938,-3.503111675126904,-3.61360152284264,-0.0401903553299492,-0.0218781725888324,0.0040538071065989
0.068,8.564936923076923,-4.606867692307691,3.037276923076923,-0.0680753846153846,-0.0012538461538461,-0.1070307692307692,8.148549746192893,-3.502795431472081,-3.61357766497462,-0.0402081218274111,-0.0218868020304568,0.0040441624365482
0.069,8.565746153846154,-4.604584615384614,3.037646153846154,-0.0679692307692307,-0.0012923076923076,-0.1071384615384615,8.148671065989847,-3.502479187817259,-3.6135538071065993,-0.040225888324873,-0.0218954314720812,0.0040345177664974
0.07,8.566555384615384,-4.602301538461538,3.038015384615385,-0.0678630769230769,-0.0013307692307692,-0.1072461538461538,8.148792385786802,-3.502162944162437,-3.6135299492385786,-0.040243654822335,-0.0219040609137055,0.0040248730964467
0.071,8.567364615384616,-4.600018461538461,3.0383846153846155,-0.067756923076923,-0.0013692307692307,-0.1073538461538461,8.148913705583755,-3.5018467005076146,-3.6135060913705583,-0.0402614213197969,-0.0219126903553299,0.0040152284263959
0.072,8.568173846153847,-4.597735384615384,3.0387538461538464,-0.0676507692307692,-0.0014076923076923,-0.1074615384615384,8.14903502538071,-3.5015304568527923,-3.613482233502538,-0.0402791878172588,-0.0219213197969543,0.0040055837563451
0.073,8.568983076923077,-4.595452307692307,3.0391230769230773,-0.0675446153846153,-0.0014461538461538,-0.1075692307692307,8.149156345177664,-3.50121421319797,-3.6134583756345178,-0.0402969543147207,-0.0219299492385786,0.0039959390862944
0.074,8.569792307692309,-4.59316923076923,3.039492307692308,-0.0674384615384615,-0.0014846153846153,-0.1076769230769231,8.149277664974619,-3.500897969543148,-3.6134345177664975,-0.0403147208121827,-0.021938578680203,0.0039862944162436
0.075,8.570601538461538,-4.590886153846153,3.0398615384615386,-0.0673323076923076,-0.0015230769230769,-0.1077846153846154,8.149398984771572,-3.5005817258883254,-3.613410659898477,-0.0403324873096446,-0.0219472081218274,0.0039766497461929
0.076,8.57141076923077,-4.588603076923076,3.040230769230769,-0.0672261538461538,-0.0015615384615384,-0.1078923076923077,8.149520304568528,-3.500265482233503,-3.613386802030457,-0.0403502538071065,-0.0219558375634517,0.0039670050761421
0.077,8.57222,-4.586319999999999,3.0406000000000004,-0.0671199999999999,-0.0016,-0.108,8.149641624365481,-3.499949238578681,-3.6133629441624366,-0.0403680203045685,-0.0219644670050761,0.0039573604060913
0.078,8.573029230769231,-4.584036923076922,3.040969230769231,-0.0670138461538461,-0.0016384615384615,-0.1081076923076923,8.149762944162436,-3.4996329949238585,-3.613339086294416,-0.0403857868020304,-0.0219730964467004,0.0039477157360406
0.079,8.573838461538463,-4.581753846153845,3.0413384615384618,-0.0669076923076922,-0.001676923076923,-0.1082153846153846,8.14988426395939,-3.499316751269036,-3.613315228426396,-0.0404035532994923,-0.0219817258883248,0.0039380710659898
0.08,8.574647692307693,-4.579470769230768,3.0417076923076927,-0.0668015384615384,-0.0017153846153846,-0.1083230769230769,8.150005583756345,-3.499000507614214,-3.613291370558376,-0.0404213197969543,-0.0219903553299492,0.003928426395939
0.081,8.575456923076924,-4.577187692307691,3.042076923076923,-0.0666953846153845,-0.0017538461538461,-0.1084307692307692,8.150126903553298,-3.498684263959392,-3.613267512690356,-0.0404390862944162,-0.0219989847715735,0.0039187817258883
0.082,8.576266153846154,-4.574904615384614,3.042446153846154,-0.0665892307692307,-0.0017923076923077,-0.1085384615384616,8.150248223350253,-3.4983680203045693,-3.6132436548223352,-0.0404568527918781,-0.0220076142131979,0.0039091370558375
0.083,8.577075384615386,-4.5726215384615365,3.042815384615385,-0.0664830769230768,-0.0018307692307692,-0.1086461538461539,8.150369543147207,-3.4980517766497465,-3.613219796954315,-0.04047461928934,-0.0220162436548223,0.0038994923857868
0.084,8.577884615384615,-4.57033846153846,3.043184615384616,-0.066376923076923,-0.0018692307692307,-0.1087538461538462,8.150490862944162,-3.497735532994924,-3.613195939086295,-0.040492385786802,-0.0220248730964466,0.003889847715736
0.085,8.578693846153847,-4.568055384615382,3.0435538461538463,-0.0662707692307691,-0.0019076923076923,-0.1088615384615385,8.150612182741115,-3.497419289340102,-3.6131720812182735,-0.0405101522842639,-0.022033502538071,0.0038802030456852
0.086,8.579503076923078,-4.565772307692306,3.043923076923077,-0.0661646153846153,-0.0019461538461538,-0.1089692307692308,8.15073350253807,-3.49710304568528,-3.613148223350254,-0.0405279187817258,-0.0220421319796954,0.0038705583756345
0.087,8.580312307692308,-4.563489230769229,3.044292307692308,-0.0660584615384614,-0.0019846153846154,-0.1090769230769231,8.150854822335026,-3.4967868020304573,-3.613124365482234,-0.0405456852791877,-0.0220507614213197,0.0038609137055837
0.088,8.58112153846154,-4.561206153846152,3.044661538461539,-0.0659523076923076,-0.0020230769230769,-0.1091846153846154,8.150976142131979,-3.496470558375635,-3.6131005076142135,-0.0405634517766497,-0.0220593908629441,0.003851269035533
0.089,8.58193076923077,-4.558923076923075,3.045030769230769,-0.0658461538461537,-0.0020615384615384,-0.1092923076923077,8.151097461928934,-3.4961543147208127,-3.613076649746193,-0.0405812182741116,-0.0220680203045685,0.0038416243654822
0.09,8.582740000000001,-4.556639999999998,3.0454000000000003,-0.0657399999999999,-0.0021,-0.1094000000000001,8.151218781725888,-3.4958380710659904,-3.613052791878173,-0.0405989847715735,-0.0220766497461928,0.0038319796954314
0.091,8.583549230769231,-4.554356923076921,3.0457692307692312,-0.065633846153846,-0.0021384615384615,-0.1095076923076924,8.151340101522843,-3.495521827411168,-3.613028934010152,-0.0406167512690355,-0.0220852791878172,0.0038223350253807
0.092,8.584358461538462,-4.552073846153844,3.046138461538462,-0.0655276923076922,-0.0021769230769231,-0.1096153846153847,8.151461421319796,-3.495205583756346,-3.613005076142132,-0.0406345177664974,-0.0220939086294416,0.0038126903553299
0.093,8.585167692307692,-4.549790769230767,3.0465076923076926,-0.0654215384615383,-0.0022153846153846,-0.109723076923077,8.151582741116751,-3.4948893401015235,-3.612981218274112,-0.0406522842639593,-0.0221025380710659,0.0038030456852792
0.094,8.585976923076924,-4.54750769230769,3.0468769230769235,-0.0653153846153845,-0.0022538461538461,-0.1098307692307693,8.151704060913705,-3.494573096446701,-3.6129573604060914,-0.0406700507614213,-0.0221111675126903,0.0037934010152284
0.095,8.586786153846155,-4.545224615384613,3.0472461538461544,-0.0652092307692306,-0.0022923076923077,-0.1099384615384616,8.15182538071066,-3.494256852791879,-3.612933502538071,-0.0406878172588832,-0.0221197969543147,0.0037837563451776
0.096,8.587595384615385,-4.542941538461536,3.0476153846153853,-0.0651030769230768,-0.0023307692307692,-0.1100461538461539,8.151946700507613,-3.4939406091370566,-3.612909644670051,-0.0407055837563451,-0.022128426395939,0.0037741116751269
0.097,8.588404615384617,-4.540658461538459,3.047984615384616,-0.0649969230769229,-0.0023692307692308,-0.1101538461538462,8.152068020304569,-3.4936243654822343,-3.612885786802031,-0.040723350253807,-0.0221370558375634,0.0037644670050761
0.098,8.589213846153847,-4.538375384615382,3.048353846153846,-0.0648907692307691,-0.0024076923076923,-0.1102615384615385,8.152189340101522,-3.493308121827412,-3.61286192893401,-0.040741116751269,-0.0221456852791878,0.0037548223350253
0.099,8.590023076923078,-4.5360923076923045,3.048723076923077,-0.0647846153846152,-0.0024461538461538,-0.1103692307692309,8.152310659898477,-3.4929918781725893,-3.61283807106599,-0.0407588832487309,-0.0221543147208121,0.0037451776649746
0.1,8.590832307692308,-4.533809230769228,3.049092307692308,-0.0646784615384614,-0.0024846153846154,-0.1104769230769232,8.15243197969543,-3.492675634517767,-3.6128142131979697,-0.0407766497461928,-0.0221629441624365,0.0037355329949238
0.101,8.59164153846154,-4.531526153846151,3.049461538461539,-0.0645723076923075,-0.0025230769230769,-0.1105846153846155,8.152553299492386,-3.4923593908629447,-3.612790355329949,-0.0407944162436548,-0.0221715736040609,0.0037258883248731
0.102,8.592450769230771,-4.529243076923074,3.04983076923077,-0.0644661538461537,-0.0025615384615385,-0.1106923076923078,8.15267461928934,-3.4920431472081224,-3.612766497461929,-0.0408121827411167,-0.0221802030456852,0.0037162436548223
0.103,8.59326,-4.526959999999997,3.0502000000000007,-0.0643599999999998,-0.0026,-0.1108000000000001,8.152795939086294,-3.4917269035533,-3.612742639593909,-0.0408299492385786,-0.0221888324873096,0.0037065989847715
0.104,8.594069230769232,-4.52467692307692,3.050569230769231,-0.064253846153846,-0.0026384615384615,-0.1109076923076924,8.152917258883248,-3.4914106598984778,-3.612718781725889,-0.0408477157360405,-0.0221974619289339,0.0036969543147208
0.105,8.594878461538462,-4.522393846153843,3.050938461538462,-0.0641476923076921,-0.0026769230769231,-0.1110153846153847,8.153038578680203,-3.4910944162436555,-3.612694923857868,-0.0408654822335025,-0.0222060913705583,0.00368730964467
0.106,8.595687692307694,-4.520110769230766,3.051307692307693,-0.0640415384615383,-0.0027153846153846,-0.111123076923077,8.153159898477156,-3.490778172588833,-3.612671065989848,-0.0408832487309644,-0.0222147208121827,0.0036776649746193
0.107,8.596496923076923,-4.517827692307689,3.051676923076924,-0.0639353846153844,-0.0027538461538462,-0.1112307692307694,8.153281218274111,-3.490461928934011,-3.612647208121828,-0.0409010152284263,-0.022223350253807,0.0036680203045685
0.108,8.597306153846155,-4.515544615384612,3.0520461538461543,-0.0638292307692306,-0.0027923076923077,-0.1113384615384617,8.153402538071065,-3.490145685279189,-3.612623350253808,-0.0409187817258883,-0.0222319796954314,0.0036583756345177
0.109,8.598115384615387,-4.513261538461535,3.052415384615385,-0.0637230769230767,-0.0028307692307692,-0.111446153846154,8.15352385786802,-3.4898294416243663,-3.612599492385787,-0.0409365482233502,-0.0222406091370558,0.003648730964467
0.11,8.598924615384616,-4.510978461538458,3.052784615384616,-0.0636169230769229,-0.0028692307692308,-0.1115538461538463,8.153645177664973,-3.489513197969544,-3.6125756345177664,-0.0409543147208121,-0.0222492385786801,0.0036390862944162
0.111,8.599733846153848,-4.508695384615381,3.053153846153847,-0.063510769230769,-0.0029076923076923,-0.1116615384615386,8.153766497461929,-3.4891969543147217,-3.612551776649746,-0.040972081218274,-0.0222578680203045,0.0036294416243654
0.112,8.600543076923078,-4.506412307692304,3.053523076923077,-0.0634046153846152,-0.0029461538461539,-0.1117692307692309,8.153887817258882,-3.4888807106599,-3.612527918781726,-0.040989847715736,-0.0222664974619289,0.0036197969543147
0.113,8.60135230769231,-4.504129230769227,3.0538923076923083,-0.0632984615384613,-0.0029846153846154,-0.1118769230769232,8.154009137055837,-3.488564467005077,-3.6125040609137056,-0.0410076142131979,-0.0222751269035532,0.0036101522842639
0.114,8.602161538461539,-4.50184615384615,3.0542615384615392,-0.0631923076923075,-0.0030230769230769,-0.1119846153846155,8.15413045685279,-3.4882482233502543,-3.612480203045685,-0.0410253807106598,-0.0222837563451776,0.0036005076142132
0.115,8.60297076923077,-4.499563076923073,3.05463076923077,-0.0630861538461536,-0.0030615384615385,-0.1120923076923078,8.154251776649746,-3.487931979695432,-3.612456345177665,-0.0410431472081218,-0.022292385786802,0.0035908629441624
0.116,8.603780000000002,-4.497279999999996,3.0550000000000006,-0.0629799999999998,-0.0031,-0.1122000000000001,8.1543730964467,-3.4876157360406097,-3.6124324873096447,-0.0410609137055837,-0.0223010152284263,0.0035812182741116
0.117,8.604589230769232,-4.494996923076919,3.0553692307692315,-0.0628738461538459,-0.0031384615384616,-0.1123076923076925,8.154494416243654,-3.4872994923857874,-3.612408629441624,-0.0410786802030456,-0.0223096446700507,0.0035715736040609
0.118,8.605398461538464,-4.492713846153842,3.0557384615384624,-0.0627676923076921,-0.0031769230769231,-0.1124153846153848,8.154615736040608,-3.486983248730965,-3.612384771573604,-0.0410964467005075,-0.0223182741116751,0.0035619289340101
0.119,8.606207692307693,-4.490430769230765,3.056107692307693,-0.0626615384615382,-0.0032153846153846,-0.1125230769230771,8.154737055837563,-3.486667005076143,-3.612360913705584,-0.0411142131979695,-0.0223269035532994,0.0035522842639594
0.12,8.607016923076925,-4.488147692307688,3.056476923076924,-0.0625553846153844,-0.0032538461538462,-0.1126307692307694,8.154858375634516,-3.4863507614213205,-3.612337055837564,-0.0411319796954314,-0.0223355329949238,0.0035426395939086
0.121,8.607826153846155,-4.485864615384611,3.0568461538461547,-0.0624492307692305,-0.0032923076923077,-0.1127384615384617,8.154979695431471,-3.486034517766498,-3.6123131979695433,-0.0411497461928933,-0.0223441624365482,0.0035329949238578
0.122,8.608635384615386,-4.483581538461534,3.0572153846153856,-0.0623430769230767,-0.0033307692307693,-0.112846153846154,8.155101015228425,-3.485718274111676,-3.612289340101523,-0.0411675126903553,-0.0223527918781725,0.0035233502538071
0.123,8.609444615384618,-4.481298461538457,3.057584615384616,-0.0622369230769228,-0.0033692307692308,-0.1129538461538463,8.15522233502538,-3.4854020304568536,-3.612265482233503,-0.0411852791878172,-0.0223614213197969,0.0035137055837563
0.124,8.610253846153848,-4.47901538461538,3.057953846153847,-0.062130769230769,-0.0034076923076923,-0.1130615384615386,8.155343654822333,-3.4850857868020317,-3.6122416243654825,-0.0412030456852791,-0.0223700507614213,0.0035040609137056
0.125,8.61106307692308,-4.476732307692303,3.058323076923078,-0.0620246153846151,-0.0034461538461539,-0.113169230769231,8.155464974619289,-3.484769543147209,-3.612217766497462,-0.041220812182741,-0.0223786802030456,0.0034944162436548
0.126,8.611872307692309,-4.474449230769226,3.0586923076923087,-0.0619184615384613,-0.0034846153846154,-0.1132769230769233,8.155586294416242,-3.4844532994923867,-3.612193908629442,-0.041238578680203,-0.02238730964467,0.003484771573604
0.127,8.61268153846154,-4.472166153846149,3.059061538461539,-0.0618123076923074,-0.003523076923077,-0.1133846153846156,8.155707614213197,-3.4841370558375644,-3.6121700507614216,-0.0412563451776649,-0.0223959390862944,0.0034751269035533
0.128,8.61349076923077,-4.469883076923072,3.05943076923077,-0.0617061538461536,-0.0035615384615385,-0.1134923076923079,8.155828934010152,-3.483820812182742,-3.612146192893401,-0.0412741116751268,-0.0224045685279187,0.0034654822335025
0.129,8.614300000000002,-4.467599999999997,3.0598,-0.0616000000000001,-0.0035999999999998,-0.113599999999999,8.155950253807106,-3.48350456852792,-3.612122335025381,-0.0412918781725888,-0.0224131979695431,0.0034558375634517
0.13,8.615243939393942,-4.466366666666664,3.059727272727273,-0.0616833333333335,-0.0035348484848483,-0.1131742424242415,8.156071573604061,-3.483188324873097,-3.61209847715736,-0.0413096446700507,-0.0224218274111674,0.003446192893401
0.131,8.616187878787882,-4.4651333333333305,3.059654545454545,-0.0617666666666668,-0.0034696969696968,-0.1127484848484839,8.156192893401014,-3.4828720812182747,-3.61207461928934,-0.0413274111675126,-0.0224304568527918,0.0034365482233502
0.132,8.61713181818182,-4.463899999999997,3.059581818181818,-0.0618500000000001,-0.0034045454545453,-0.1123227272727263,8.15631421319797,-3.4825558375634524,-3.61205076142132,-0.0413451776649745,-0.0224390862944162,0.0034269035532995
0.133,8.61807575757576,-4.462666666666664,3.0595090909090907,-0.0619333333333335,-0.0033393939393938,-0.1118969696969688,8.156435532994923,-3.48223959390863,-3.6120269035533,-0.0413629441624365,-0.0224477157360405,0.0034172588832487
0.134,8.6190196969697,-4.461433333333331,3.0594363636363635,-0.0620166666666668,-0.0032742424242422,-0.1114712121212112,8.156556852791878,-3.481923350253808,-3.612003045685279,-0.0413807106598984,-0.0224563451776649,0.0034076142131979
0.135,8.619963636363638,-4.460199999999998,3.0593636363636363,-0.0621000000000001,-0.0032090909090907,-0.1110454545454537,8.156678172588832,-3.481607106598985,-3.611979187817259,-0.0413984771573603,-0.0224649746192893,0.0033979695431472
0.136,8.620907575757577,-4.458966666666664,3.059290909090909,-0.0621833333333335,-0.0031439393939392,-0.1106196969696961,8.156799492385787,-3.4812908629441632,-3.611955329949239,-0.0414162436548223,-0.0224736040609136,0.0033883248730964
0.137,8.621851515151517,-4.457733333333331,3.059218181818182,-0.0622666666666668,-0.0030787878787877,-0.1101939393939385,8.15692081218274,-3.480974619289341,-3.6119314720812175,-0.0414340101522842,-0.022482233502538,0.0033786802030457
0.138,8.622795454545457,-4.4564999999999975,3.0591454545454546,-0.0623500000000001,-0.0030136363636362,-0.109768181818181,8.157042131979695,-3.480658375634518,-3.611907614213198,-0.0414517766497461,-0.0224908629441624,0.0033690355329949
0.139,8.623739393939395,-4.455266666666664,3.0590727272727274,-0.0624333333333334,-0.0029484848484847,-0.1093424242424234,8.157163451776649,-3.4803421319796963,-3.6118837563451778,-0.041469543147208,-0.0224994923857867,0.0033593908629441
0.14,8.624683333333335,-4.454033333333331,3.059,-0.0625166666666668,-0.0028833333333332,-0.1089166666666659,8.157284771573604,-3.480025888324874,-3.6118598984771575,-0.04148730964467,-0.0225081218274111,0.0033497461928934
0.141,8.625627272727275,-4.452799999999998,3.0589272727272725,-0.0626000000000001,-0.0028181818181817,-0.1084909090909083,8.157406091370557,-3.479709644670052,-3.611836040609137,-0.0415050761421319,-0.0225167512690355,0.0033401015228426
0.142,8.626571212121213,-4.451566666666665,3.0588545454545453,-0.0626833333333334,-0.0027530303030301,-0.1080651515151507,8.157527411167512,-3.479393401015229,-3.611812182741117,-0.0415228426395938,-0.0225253807106598,0.0033304568527918
0.143,8.627515151515153,-4.450333333333331,3.058781818181818,-0.0627666666666668,-0.0026878787878786,-0.1076393939393932,8.157648730964466,-3.479077157360407,-3.6117883248730966,-0.0415406091370558,-0.0225340101522842,0.0033208121827411
0.144,8.628459090909093,-4.449099999999998,3.058709090909091,-0.0628500000000001,-0.0026227272727271,-0.1072136363636356,8.157770050761421,-3.4787609137055844,-3.611764467005077,-0.0415583756345177,-0.0225426395939086,0.0033111675126903
0.145,8.629403030303031,-4.447866666666664,3.058636363636364,-0.0629333333333334,-0.0025575757575756,-0.1067878787878781,8.157891370558374,-3.478444670050762,-3.611740609137056,-0.0415761421319796,-0.0225512690355329,0.0033015228426396
0.146,8.630346969696971,-4.446633333333331,3.0585636363636364,-0.0630166666666668,-0.0024924242424241,-0.1063621212121205,8.15801269035533,-3.47812842639594,-3.611716751269036,-0.0415939086294415,-0.0225598984771573,0.0032918781725888
0.147,8.631290909090911,-4.445399999999999,3.058490909090909,-0.0631000000000001,-0.0024272727272726,-0.105936363636363,8.158134010152283,-3.477812182741117,-3.611692893401016,-0.0416116751269035,-0.0225685279187817,0.003282233502538
0.148,8.63223484848485,-4.444166666666665,3.058418181818182,-0.0631833333333334,-0.0023621212121211,-0.1055106060606054,8.158255329949238,-3.477495939086295,-3.6116690355329952,-0.0416294416243654,-0.022577157360406,0.0032725888324873
0.149,8.633178787878789,-4.442933333333332,3.0583454545454547,-0.0632666666666667,-0.0022969696969696,-0.1050848484848478,8.158376649746192,-3.477179695431473,-3.611645177664975,-0.0416472081218273,-0.0225857868020304,0.0032629441624365
0.15,8.634122727272729,-4.441699999999998,3.0582727272727275,-0.0633500000000001,-0.002231818181818,-0.1046590909090903,8.158497969543147,-3.4768634517766506,-3.611621319796954,-0.0416649746192893,-0.0225944162436548,0.0032532994923858
0.151,8.635066666666669,-4.440466666666665,3.0582,-0.0634333333333334,-0.0021666666666665,-0.1042333333333327,8.1586192893401,-3.4765472081218283,-3.611597461928934,-0.0416827411167512,-0.0226030456852791,0.003243654822335
0.152,8.636010606060607,-4.439233333333331,3.0581272727272726,-0.0635166666666667,-0.002101515151515,-0.1038075757575752,8.158740609137055,-3.476230964467006,-3.6115736040609137,-0.0417005076142131,-0.0226116751269035,0.0032340101522842
0.153,8.636954545454547,-4.437999999999998,3.0580545454545454,-0.0636000000000001,-0.0020363636363635,-0.1033818181818176,8.158861928934009,-3.475914720812184,-3.611549746192893,-0.041718274111675,-0.0226203045685279,0.0032243654822335
0.154,8.637898484848487,-4.436766666666665,3.057981818181818,-0.0636833333333334,-0.001971212121212,-0.10295606060606,8.158983248730964,-3.4755984771573614,-3.611525888324873,-0.041736040609137,-0.0226289340101522,0.0032147208121827
0.155,8.638842424242426,-4.435533333333332,3.057909090909091,-0.0637666666666667,-0.0019060606060605,-0.1025303030303025,8.159104568527917,-3.475282233502539,-3.611502030456853,-0.0417538071065989,-0.0226375634517766,0.003205076142132
0.156,8.639786363636365,-4.434299999999999,3.057836363636364,-0.0638500000000001,-0.001840909090909,-0.1021045454545449,8.159225888324872,-3.4749659898477168,-3.611478172588833,-0.0417715736040608,-0.0226461928934009,0.0031954314720812
0.157,8.640730303030304,-4.433066666666665,3.0577636363636365,-0.0639333333333334,-0.0017757575757575,-0.1016787878787874,8.159347208121826,-3.4746497461928945,-3.611454314720812,-0.0417893401015228,-0.0226548223350253,0.0031857868020304
0.158,8.641674242424244,-4.431833333333332,3.057690909090909,-0.0640166666666667,-0.0017106060606059,-0.1012530303030298,8.159468527918781,-3.474333502538072,-3.611430456852792,-0.0418071065989847,-0.0226634517766497,0.0031761421319797
0.159,8.642618181818182,-4.430599999999998,3.057618181818182,-0.0641000000000001,-0.0016454545454544,-0.1008272727272722,8.159589847715734,-3.4740172588832494,-3.611406598984772,-0.0418248730964466,-0.022672081218274,0.0031664974619289
0.16,8.643562121212122,-4.429366666666665,3.057545454545455,-0.0641833333333334,-0.0015803030303029,-0.1004015151515147,8.15971116751269,-3.473701015228427,-3.611382741116752,-0.0418426395939085,-0.0226807106598984,0.0031568527918781
0.161,8.644506060606062,-4.428133333333332,3.057472727272727,-0.0642666666666667,-0.0015151515151514,-0.0999757575757571,8.159832487309643,-3.473384771573605,-3.611358883248731,-0.0418604060913705,-0.0226893401015228,0.0031472081218274
0.162,8.645450000000002,-4.426899999999999,3.0574,-0.06435,-0.0014499999999999,-0.0995499999999996,8.159953807106598,-3.4730685279187825,-3.611335025380711,-0.0418781725888324,-0.0226979695431471,0.0031375634517766
0.163,8.64639393939394,-4.4256666666666655,3.0573272727272727,-0.0644333333333334,-0.0013848484848484,-0.099124242424242,8.160075126903552,-3.47275228426396,-3.6113111675126905,-0.0418959390862943,-0.0227065989847715,0.0031279187817259
0.164,8.64733787878788,-4.424433333333332,3.057254545454545,-0.0645166666666667,-0.0013196969696969,-0.0986984848484844,8.160196446700507,-3.472436040609138,-3.6112873096446703,-0.0419137055837563,-0.0227152284263959,0.0031182741116751
0.165,8.64828181818182,-4.423199999999999,3.0571818181818182,-0.0646,-0.0012545454545453,-0.0982727272727269,8.16031776649746,-3.472119796954316,-3.61126345177665,-0.0419314720812182,-0.0227238578680202,0.0031086294416243
0.166,8.649225757575758,-4.421966666666665,3.057109090909091,-0.0646833333333334,-0.0011893939393938,-0.0978469696969693,8.160439086294415,-3.4718035532994933,-3.6112395939086297,-0.0419492385786801,-0.0227324873096446,0.0030989847715736
0.167,8.650169696969698,-4.420733333333332,3.057036363636364,-0.0647666666666667,-0.0011242424242423,-0.0974212121212118,8.160560406091369,-3.471487309644671,-3.6112157360406094,-0.041967005076142,-0.022741116751269,0.0030893401015228
0.168,8.651113636363638,-4.419499999999999,3.0569636363636365,-0.06485,-0.0010590909090908,-0.0969954545454542,8.160681725888324,-3.4711710659898487,-3.611191878172589,-0.041984771573604,-0.0227497461928933,0.0030796954314721
0.169,8.652057575757576,-4.418266666666666,3.0568909090909093,-0.0649333333333334,-0.0009939393939393,-0.0965696969696966,8.160803045685277,-3.4708548223350264,-3.611168020304569,-0.0420025380710659,-0.0227583756345177,0.0030700507614213
0.17,8.653001515151516,-4.4170333333333325,3.056818181818182,-0.0650166666666667,-0.0009287878787878,-0.0961439393939391,8.160924365482233,-3.470538578680204,-3.611144162436548,-0.0420203045685278,-0.0227670050761421,0.0030604060913705
0.171,8.653945454545456,-4.415799999999999,3.0567454545454544,-0.0651,-0.0008636363636363,-0.0957181818181815,8.161045685279188,-3.470222335025382,-3.611120304568528,-0.0420380710659898,-0.0227756345177664,0.0030507614213198
0.172,8.654889393939396,-4.414566666666666,3.056672727272727,-0.0651833333333333,-0.0007984848484848,-0.0952924242424239,8.161167005076141,-3.4699060913705595,-3.611096446700508,-0.0420558375634517,-0.0227842639593908,0.003041116751269
0.173,8.655833333333334,-4.413333333333332,3.0566,-0.0652666666666667,-0.0007333333333332,-0.0948666666666664,8.161288324873096,-3.469589847715737,-3.6110725888324873,-0.0420736040609136,-0.0227928934010152,0.0030314720812182
0.174,8.656777272727274,-4.412099999999999,3.0565272727272728,-0.06535,-0.0006681818181817,-0.0944409090909088,8.16140964467005,-3.4692736040609145,-3.611048730964467,-0.0420913705583755,-0.0228015228426395,0.0030218274111675
0.175,8.657721212121213,-4.410866666666665,3.056454545454545,-0.0654333333333333,-0.0006030303030302,-0.0940151515151513,8.161530964467005,-3.468957360406092,-3.611024873096447,-0.0421091370558375,-0.0228101522842639,0.0030121827411167
0.176,8.658665151515152,-4.409633333333333,3.0563818181818183,-0.0655166666666667,-0.0005378787878787,-0.0935893939393937,8.161652284263958,-3.46864111675127,-3.6110010152284255,-0.0421269035532994,-0.0228187817258883,0.003002538071066
0.177,8.659609090909091,-4.408399999999999,3.056309090909091,-0.0656,-0.0004727272727272,-0.0931636363636362,8.161773604060913,-3.4683248730964475,-3.610977157360406,-0.0421446700507613,-0.0228274111675126,0.0029928934010152
0.178,8.660553030303031,-4.407166666666666,3.056236363636364,-0.0656833333333333,-0.0004075757575757,-0.0927378787878786,8.161894923857867,-3.468008629441625,-3.610953299492386,-0.0421624365482233,-0.022836040609137,0.0029832487309644
0.179,8.661496969696971,-4.405933333333333,3.0561636363636366,-0.0657666666666667,-0.0003424242424242,-0.092312121212121,8.162016243654822,-3.467692385786803,-3.6109294416243656,-0.0421802030456852,-0.0228446700507614,0.0029736040609137
0.18,8.66244090909091,-4.404699999999999,3.0560909090909094,-0.06585,-0.0002772727272727,-0.0918863636363635,8.162137563451775,-3.4673761421319806,-3.610905583756345,-0.0421979695431471,-0.0228532994923857,0.0029639593908629
0.181,8.66338484848485,-4.403466666666666,3.0560181818181817,-0.0659333333333333,-0.0002121212121211,-0.0914606060606059,8.16225888324873,-3.4670598984771583,-3.610881725888325,-0.042215736040609,-0.0228619289340101,0.0029543147208122
0.182,8.66432878787879,-4.402233333333333,3.0559454545454545,-0.0660166666666667,-0.0001469696969696,-0.0910348484848484,8.162380203045684,-3.466743654822336,-3.6108578680203047,-0.042233502538071,-0.0228705583756344,0.0029446700507614
0.183,8.665272727272727,-4.401,3.0558727272727277,-0.0661,-8.181818181817076e-05,-0.0906090909090908,8.16250152284264,-3.4664274111675137,-3.610834010152285,-0.0422512690355329,-0.0228791878172588,0.0029350253807106
0.184,8.666216666666667,-4.399766666666666,3.0558,-0.0661833333333333,-1.6666666666657892e-05,-0.0901833333333332,8.162622842639593,-3.4661111675126914,-3.610810152284264,-0.0422690355329948,-0.0228878172588832,0.0029253807106599
0.185,8.667160606060607,-4.398533333333333,3.055727272727273,-0.0662666666666666,4.848484848485454e-05,-0.0897575757575757,8.162744162436548,-3.465794923857869,-3.610786294416244,-0.0422868020304568,-0.0228964467005075,0.0029157360406091
0.186,8.668104545454545,-4.3973,3.0556545454545456,-0.06635,0.0001136363636363,-0.0893318181818181,8.162865482233501,-3.465478680203047,-3.610762436548224,-0.0423045685279187,-0.0229050761421319,0.0029060913705584
0.187,8.669048484848485,-4.396066666666666,3.0555818181818184,-0.0664333333333333,0.0001787878787878,-0.0889060606060606,8.162986802030456,-3.4651624365482245,-3.6107385786802033,-0.0423223350253806,-0.0229137055837563,0.0028964467005076
0.188,8.669992424242425,-4.394833333333333,3.055509090909091,-0.0665166666666666,0.0002439393939393,-0.088480303030303,8.16310812182741,-3.4648461928934022,-3.610714720812183,-0.0423401015228425,-0.0229223350253806,0.0028868020304568
0.189,8.670936363636365,-4.3936,3.055436363636364,-0.0666,0.0003090909090909,-0.0880545454545454,8.163229441624365,-3.4645299492385795,-3.6106908629441623,-0.0423578680203045,-0.022930964467005,0.0028771573604061
0.19,8.671880303030303,-4.392366666666667,3.0553636363636367,-0.0666833333333333,0.0003742424242424,-0.0876287878787879,8.163350761421318,-3.464213705583757,-3.610667005076142,-0.0423756345177664,-0.0229395939086294,0.0028675126903553
0.191,8.672824242424243,-4.391133333333333,3.055290909090909,-0.0667666666666666,0.0004393939393939,-0.0872030303030303,8.163472081218274,-3.463897461928935,-3.6106431472081217,-0.0423934010152283,-0.0229482233502537,0.0028578680203045
0.192,8.673768181818183,-4.3899,3.055218181818182,-0.0668499999999999,0.0005045454545454,-0.0867772727272728,8.163593401015227,-3.4635812182741126,-3.6106192893401015,-0.0424111675126903,-0.0229568527918781,0.0028482233502538
0.193,8.67471212121212,-4.3886666666666665,3.0551454545454546,-0.0669333333333333,0.0005696969696969,-0.0863515151515152,8.163714720812182,-3.4632649746192903,-3.610595431472081,-0.0424289340101522,-0.0229654822335025,0.002838578680203
0.194,8.67565606060606,-4.387433333333333,3.0550727272727274,-0.0670166666666666,0.0006348484848484,-0.0859257575757576,8.163836040609135,-3.462948730964468,-3.610571573604061,-0.0424467005076141,-0.0229741116751268,0.0028289340101523
0.195,8.6766,-4.3862,3.055,-0.0670999999999999,0.0006999999999999,-0.0855000000000001,8.16395736040609,-3.4626324873096457,-3.6105477157360406,-0.0424644670050761,-0.0229827411167512,0.0028192893401015
0.196,8.6768984375,-4.3856765625,3.0553734375,-0.0671999999999999,0.0007249999999999,-0.0848593750000001,8.164078680203044,-3.462316243654824,-3.61052385786802,-0.042482233502538,-0.0229913705583756,0.0028096446700507
0.197,8.677196875,-4.385153125,3.055746875,-0.0672999999999999,0.0007499999999999,-0.0842187500000001,8.1642,-3.462000000000001,-3.6105,-0.0424999999999999,-0.0229999999999999,0.0028
0.198,8.6774953125,-4.3846296875,3.0561203125,-0.0673999999999999,0.0007749999999999,-0.0835781250000001,8.16425496183206,-3.4619270992366418,-3.610536259541985,-0.0424637404580153,-0.0230099236641221,0.0028885496183203
0.199,8.677793750000001,-4.384106249999999,3.05649375,-0.0674999999999999,0.0007999999999999,-0.0829375000000001,8.16430992366412,-3.461854198473283,-3.6105725190839695,-0.0424274809160306,-0.0230198473282442,0.0029770992366409
0.2,8.6780921875,-4.383582812499999,3.0568671875,-0.0675999999999999,0.0008249999999999,-0.0822968750000001,8.164364885496182,-3.461781297709924,-3.610608778625954,-0.0423912213740459,-0.0230297709923663,0.0030656488549615
0.201,8.678390625,-4.383059375,3.057240625,-0.0676999999999999,0.0008499999999999,-0.0816562500000001,8.164419847328244,-3.461708396946565,-3.610645038167939,-0.0423549618320611,-0.0230396946564885,0.0031541984732822
0.202,8.6786890625,-4.3825359375,3.0576140625,-0.0677999999999999,0.0008749999999999,-0.0810156250000001,8.164474809160305,-3.4616354961832063,-3.6106812977099234,-0.0423187022900764,-0.0230496183206106,0.0032427480916028
0.203,8.6789875,-4.3820125,3.0579875,-0.0678999999999999,0.0008999999999999,-0.0803750000000001,8.164529770992365,-3.461562595419848,-3.610717557251908,-0.0422824427480917,-0.0230595419847327,0.0033312977099234
0.204,8.679285937500001,-4.3814890625,3.0583609375,-0.0679999999999999,0.0009249999999999,-0.0797343750000001,8.164584732824427,-3.461489694656489,-3.610753816793893,-0.0422461832061069,-0.0230694656488549,0.003419847328244
0.205,8.679584375000001,-4.380965625,3.058734375,-0.0680999999999999,0.0009499999999999,-0.0790937500000001,8.164639694656488,-3.46141679389313,-3.610790076335878,-0.0422099236641222,-0.023079389312977,0.0035083969465646
0.206,8.6798828125,-4.3804421875,3.0591078125,-0.0681999999999999,0.0009749999999999,-0.0784531250000001,8.164694656488548,-3.4613438931297718,-3.610826335877863,-0.0421736641221375,-0.0230893129770992,0.0035969465648852
0.207,8.68018125,-4.37991875,3.05948125,-0.0682999999999999,0.0009999999999999,-0.0778125000000001,8.16474961832061,-3.4612709923664124,-3.610862595419847,-0.0421374045801527,-0.0230992366412213,0.0036854961832058
0.208,8.6804796875,-4.3793953125,3.0598546875,-0.0683999999999999,0.0010249999999999,-0.0771718750000001,8.164804580152671,-3.461198091603054,-3.610898854961832,-0.042101145038168,-0.0231091603053434,0.0037740458015264
0.209,8.680778125,-4.378871875,3.060228125,-0.0684999999999999,0.0010499999999999,-0.0765312500000002,8.164859541984733,-3.461125190839695,-3.6109351145038167,-0.0420648854961833,-0.0231190839694656,0.003862595419847
0.21,8.681076562500001,-4.3783484375,3.0606015625,-0.0685999999999999,0.0010749999999999,-0.0758906250000002,8.164914503816792,-3.4610522900763363,-3.6109713740458016,-0.0420286259541985,-0.0231290076335877,0.0039511450381676
0.211,8.681375000000001,-4.377825,3.060975,-0.0686999999999999,0.0010999999999999,-0.0752500000000002,8.164969465648854,-3.460979389312977,-3.611007633587786,-0.0419923664122138,-0.0231389312977098,0.0040396946564883
0.212,8.6816734375,-4.3773015625,3.0613484375,-0.0687999999999999,0.0011249999999999,-0.0746093750000002,8.165024427480915,-3.4609064885496186,-3.611043893129771,-0.0419561068702291,-0.023148854961832,0.0041282442748089
0.213,8.681971875,-4.376778125,3.061721875,-0.0688999999999999,0.0011499999999999,-0.0739687500000002,8.165079389312977,-3.46083358778626,-3.611080152671756,-0.0419198473282443,-0.0231587786259541,0.0042167938931295
0.214,8.6822703125,-4.3762546875,3.0620953125,-0.0689999999999999,0.0011749999999999,-0.0733281250000002,8.165134351145037,-3.4607606870229013,-3.611116412213741,-0.0418835877862596,-0.0231687022900763,0.0043053435114501
0.215,8.68256875,-4.375731249999999,3.06246875,-0.0690999999999999,0.0011999999999999,-0.0726875000000002,8.165189312977098,-3.4606877862595424,-3.611152671755725,-0.0418473282442749,-0.0231786259541984,0.0043938931297707
0.216,8.682867187500001,-4.375207812499999,3.0628421875,-0.0691999999999999,0.0012249999999999,-0.0720468750000002,8.16524427480916,-3.460614885496184,-3.61118893129771,-0.0418110687022901,-0.0231885496183205,0.0044824427480913
0.217,8.683165625,-4.374684375,3.063215625,-0.0692999999999999,0.0012499999999999,-0.0714062500000002,8.16529923664122,-3.4605419847328247,-3.6112251908396944,-0.0417748091603054,-0.0231984732824427,0.0045709923664119
0.218,8.6834640625,-4.3741609375,3.0635890625,-0.0693999999999999,0.0012749999999999,-0.0707656250000001,8.165354198473281,-3.460469083969466,-3.6112614503816793,-0.0417385496183207,-0.0232083969465648,0.0046595419847325
0.219,8.6837625,-4.3736375,3.0639625,-0.0694999999999999,0.0012999999999999,-0.0701250000000002,8.165409160305343,-3.4603961832061074,-3.611297709923664,-0.0417022900763359,-0.0232183206106869,0.0047480916030531
0.22,8.6840609375,-4.3731140625,3.0643359375,-0.0695999999999999,0.0013249999999999,-0.0694843750000002,8.165464122137404,-3.460323282442749,-3.6113339694656488,-0.0416660305343512,-0.0232282442748091,0.0048366412213738
0.221,8.684359375,-4.372590625,3.064709375,-0.0696999999999999,0.0013499999999999,-0.0688437500000002,8.165519083969464,-3.4602503816793897,-3.6113702290076337,-0.0416297709923665,-0.0232381679389312,0.0049251908396944
0.222,8.684657812500001,-4.3720671875,3.0650828125,-0.0697999999999999,0.0013749999999999,-0.0682031250000002,8.165574045801526,-3.460177480916031,-3.611406488549618,-0.0415935114503817,-0.0232480916030534,0.005013740458015
0.223,8.68495625,-4.37154375,3.06545625,-0.0698999999999999,0.0013999999999999,-0.0675625000000001,8.165629007633587,-3.460104580152672,-3.611442748091603,-0.041557251908397,-0.0232580152671755,0.0051022900763356
0.224,8.6852546875,-4.3710203125,3.0658296875,-0.0699999999999999,0.0014249999999999,-0.0669218750000002,8.165683969465649,-3.4600316793893136,-3.611479007633588,-0.0415209923664123,-0.0232679389312976,0.0051908396946562
0.225,8.685553125,-4.370496875,3.066203125,-0.0700999999999999,0.0014499999999999,-0.0662812500000002,8.165738931297708,-3.4599587786259547,-3.6115152671755726,-0.0414847328244275,-0.0232778625954198,0.0052793893129768
0.226,8.6858515625,-4.3699734375,3.0665765625,-0.0701999999999999,0.0014749999999999,-0.0656406250000002,8.16579389312977,-3.459885877862596,-3.611551526717557,-0.0414484732824428,-0.0232877862595419,0.0053679389312974
0.227,8.68615,-4.36945,3.06695,-0.0702999999999999,0.0014999999999999,-0.0650000000000002,8.165848854961832,-3.459812977099237,-3.611587786259542,-0.0414122137404581,-0.023297709923664,0.005456488549618
0.228,8.686448437500001,-4.3689265625,3.0673234375,-0.0703999999999999,0.0015249999999999,-0.0643593750000001,8.165903816793893,-3.459740076335878,-3.6116240458015274,-0.0413759541984733,-0.0233076335877862,0.0055450381679386
0.229,8.686746875,-4.368403125,3.067696875,-0.0704999999999999,0.0015499999999999,-0.0637187500000002,8.165958778625953,-3.4596671755725192,-3.611660305343512,-0.0413396946564886,-0.0233175572519083,0.0056335877862592
0.23,8.6870453125,-4.367879687499999,3.0680703125,-0.0705999999999999,0.0015749999999999,-0.0630781250000002,8.166013740458014,-3.459594274809161,-3.611696564885496,-0.0413034351145039,-0.0233274809160305,0.0057221374045799
0.231,8.68734375,-4.367356249999999,3.06844375,-0.0706999999999999,0.0015999999999999,-0.0624375000000002,8.166068702290076,-3.459521374045802,-3.611732824427481,-0.0412671755725191,-0.0233374045801526,0.0058106870229005
0.232,8.6876421875,-4.366832812499999,3.0688171875,-0.0707999999999999,0.0016249999999999,-0.0617968750000001,8.166123664122136,-3.459448473282443,-3.6117690839694654,-0.0412309160305344,-0.0233473282442747,0.0058992366412211
0.233,8.687940625,-4.366309375,3.069190625,-0.0708999999999999,0.0016499999999999,-0.0611562500000002,8.166178625954197,-3.459375572519084,-3.6118053435114494,-0.0411946564885497,-0.0233572519083969,0.0059877862595417
0.234,8.688239062500001,-4.3657859375,3.0695640625,-0.0709999999999999,0.0016749999999999,-0.0605156250000002,8.166233587786259,-3.4593026717557254,-3.6118416030534353,-0.0411583969465649,-0.023367175572519,0.0060763358778623
0.235,8.6885375,-4.3652625,3.0699375,-0.0710999999999999,0.0016999999999999,-0.0598750000000001,8.16628854961832,-3.459229770992367,-3.61187786259542,-0.0411221374045802,-0.0233770992366411,0.0061648854961829
0.236,8.6888359375,-4.3647390625,3.0703109375,-0.0711999999999999,0.0017249999999999,-0.0592343750000002,8.16634351145038,-3.459156870229008,-3.6119141221374047,-0.0410858778625955,-0.0233870229007633,0.0062534351145035
0.237,8.689134375,-4.364215625,3.070684375,-0.0712999999999999,0.0017499999999999,-0.0585937500000001,8.166398473282442,-3.459083969465649,-3.611950381679389,-0.0410496183206107,-0.0233969465648854,0.0063419847328241
0.238,8.6894328125,-4.3636921875,3.0710578125,-0.0713999999999999,0.0017749999999999,-0.0579531250000001,8.166453435114503,-3.4590110687022904,-3.611986641221374,-0.041013358778626,-0.0234068702290076,0.0064305343511447
0.239,8.689731250000001,-4.36316875,3.07143125,-0.0714999999999999,0.0017999999999999,-0.0573125000000002,8.166508396946565,-3.4589381679389315,-3.612022900763359,-0.0409770992366413,-0.0234167938931297,0.0065190839694654
0.24,8.690029687500001,-4.3626453125,3.0718046875,-0.0715999999999999,0.0018249999999999,-0.0566718750000002,8.166563358778625,-3.458865267175573,-3.612059160305344,-0.0409408396946565,-0.0234267175572518,0.006607633587786
0.241,8.690328125,-4.362121875,3.072178125,-0.0716999999999999,0.0018499999999999,-0.0560312500000002,8.166618320610686,-3.458792366412214,-3.612095419847328,-0.0409045801526718,-0.023436641221374,0.0066961832061066
0.242,8.6906265625,-4.3615984375,3.0725515625,-0.0717999999999999,0.0018749999999999,-0.0553906250000002,8.166673282442748,-3.458719465648856,-3.612131679389313,-0.0408683206106871,-0.0234465648854961,0.0067847328244272
0.243,8.690925,-4.361075,3.072925,-0.0718999999999999,0.0018999999999999,-0.0547500000000002,8.166728244274807,-3.4586465648854965,-3.6121679389312975,-0.0408320610687023,-0.0234564885496182,0.0068732824427478
0.244,8.6912234375,-4.3605515625,3.0732984375,-0.0719999999999999,0.0019249999999999,-0.0541093750000002,8.166783206106869,-3.4585736641221376,-3.6122041984732816,-0.0407958015267176,-0.0234664122137404,0.0069618320610684
0.245,8.691521875000001,-4.360028125,3.073671875,-0.0720999999999999,0.0019499999999999,-0.0534687500000002,8.16683816793893,-3.4585007633587788,-3.612240458015267,-0.0407595419847329,-0.0234763358778625,0.007050381679389
0.246,8.6918203125,-4.359504687499999,3.0740453125,-0.0721999999999999,0.0019749999999999,-0.0528281250000002,8.166893129770992,-3.4584278625954203,-3.612276717557252,-0.0407232824427482,-0.0234862595419847,0.0071389312977096
0.247,8.69211875,-4.358981249999999,3.07441875,-0.0722999999999999,0.0019999999999999,-0.0521875000000002,8.166948091603052,-3.458354961832061,-3.612312977099237,-0.0406870229007634,-0.0234961832061068,0.0072274809160302
0.248,8.6924171875,-4.3584578125,3.0747921875,-0.0723999999999999,0.0020249999999999,-0.0515468750000002,8.167003053435113,-3.4582820610687026,-3.612349236641221,-0.0406507633587787,-0.0235061068702289,0.0073160305343508
0.249,8.692715625,-4.357934375,3.075165625,-0.0724999999999999,0.0020499999999999,-0.0509062500000002,8.167058015267175,-3.458209160305344,-3.6123854961832063,-0.040614503816794,-0.0235160305343511,0.0074045801526715
0.25,8.6930140625,-4.3574109375,3.0755390625,-0.0725999999999999,0.0020749999999999,-0.0502656250000002,8.167112977099237,-3.458136259541985,-3.612421755725191,-0.0405782442748092,-0.0235259541984732,0.0074931297709921
0.251,8.693312500000001,-4.3568875,3.0759125,-0.0726999999999999,0.0020999999999999,-0.0496250000000002,8.167167938931296,-3.4580633587786265,-3.612458015267176,-0.0405419847328245,-0.0235358778625953,0.0075816793893127
0.252,8.6936109375,-4.3563640625,3.0762859375,-0.0727999999999999,0.0021249999999999,-0.0489843750000002,8.167222900763358,-3.457990458015268,-3.61249427480916,-0.0405057251908398,-0.0235458015267175,0.0076702290076333
0.253,8.693909375,-4.355840625,3.076659375,-0.0728999999999999,0.0021499999999999,-0.0483437500000002,8.16727786259542,-3.4579175572519087,-3.612530534351145,-0.040469465648855,-0.0235557251908396,0.0077587786259539
0.254,8.6942078125,-4.3553171875,3.0770328125,-0.0729999999999999,0.0021749999999999,-0.0477031250000002,8.16733282442748,-3.45784465648855,-3.6125667938931296,-0.0404332061068703,-0.0235656488549618,0.0078473282442745
0.255,8.69450625,-4.35479375,3.07740625,-0.0730999999999999,0.0021999999999999,-0.0470625000000002,8.16738778625954,-3.457771755725191,-3.6126030534351146,-0.0403969465648856,-0.0235755725190839,0.0079358778625951
0.256,8.6948046875,-4.3542703125,3.0777796875,-0.0731999999999999,0.0022249999999999,-0.0464218750000002,8.167442748091602,-3.457698854961832,-3.612639312977099,-0.0403606870229008,-0.023585496183206,0.0080244274809157
0.257,8.695103125000001,-4.353746875,3.078153125,-0.0732999999999999,0.0022499999999999,-0.0457812500000002,8.167497709923664,-3.4576259541984737,-3.612675572519084,-0.0403244274809161,-0.0235954198473282,0.0081129770992363
0.258,8.6954015625,-4.3532234375,3.0785265625,-0.0733999999999999,0.0022749999999999,-0.0451406250000002,8.167552671755724,-3.457553053435115,-3.612711832061069,-0.0402881679389314,-0.0236053435114503,0.008201526717557
0.259,8.6957,-4.3527,3.0789,-0.0734999999999999,0.0022999999999999,-0.0445000000000002,8.167607633587785,-3.457480152671756,-3.612748091603053,-0.0402519083969466,-0.0236152671755724,0.0082900763358776
0.26,8.695626562500001,-4.352923437499999,3.0786765625,-0.0735843749999999,0.0022765625,-0.0439921875000001,8.167662595419847,-3.457407251908397,-3.612784351145038,-0.0402156488549619,-0.0236251908396946,0.0083786259541982
0.261,8.695553125,-4.353146874999999,3.078453125,-0.0736687499999999,0.002253125,-0.0434843750000001,8.167717557251908,-3.4573343511450383,-3.612820610687023,-0.0401793893129772,-0.0236351145038167,0.0084671755725188
0.262,8.6954796875,-4.353370312499999,3.0782296875,-0.0737531249999999,0.0022296875,-0.0429765625000001,8.167772519083968,-3.45726145038168,-3.612856870229008,-0.0401431297709924,-0.0236450381679389,0.0085557251908394
0.263,8.695406250000001,-4.35359375,3.07800625,-0.0738374999999999,0.00220625,-0.0424687500000001,8.16782748091603,-3.457188549618321,-3.612893129770992,-0.0401068702290077,-0.023654961832061,0.00864427480916
0.264,8.6953328125,-4.3538171875,3.0777828125,-0.0739218749999999,0.0021828125,-0.0419609375000001,8.167882442748091,-3.457115648854962,-3.612929389312977,-0.040070610687023,-0.0236648854961831,0.0087328244274806
0.265,8.695259375000001,-4.354040625,3.077559375,-0.0740062499999999,0.002159375,-0.0414531250000001,8.167937404580151,-3.4570427480916037,-3.6129656488549617,-0.0400343511450382,-0.0236748091603053,0.0088213740458012
0.266,8.6951859375,-4.3542640625,3.0773359375,-0.0740906249999999,0.0021359375,-0.0409453125000001,8.167992366412212,-3.4569698473282444,-3.6130019083969462,-0.0399980916030535,-0.0236847328244274,0.0089099236641218
0.267,8.6951125,-4.354487499999999,3.0771125,-0.0741749999999999,0.0021125,-0.0404375000000001,8.168047328244274,-3.456896946564886,-3.613038167938931,-0.0399618320610688,-0.0236946564885495,0.0089984732824424
0.268,8.695039062500001,-4.354710937499999,3.0768890625,-0.0742593749999999,0.0020890625,-0.0399296875000001,8.168102290076336,-3.456824045801527,-3.613074427480916,-0.039925572519084,-0.0237045801526717,0.0090870229007631
0.269,8.694965625,-4.354934374999999,3.076665625,-0.0743437499999999,0.002065625,-0.0394218750000001,8.168157251908395,-3.4567511450381683,-3.6131106870229006,-0.0398893129770993,-0.0237145038167938,0.0091755725190837
0.27,8.6948921875,-4.3551578125,3.0764421875,-0.0744281249999999,0.0020421875,-0.0389140625000001,8.168212213740457,-3.4566782442748094,-3.6131469465648856,-0.0398530534351146,-0.023724427480916,0.0092641221374043
0.271,8.694818750000001,-4.35538125,3.07621875,-0.0745124999999999,0.00201875,-0.0384062500000001,8.168267175572518,-3.4566053435114505,-3.61318320610687,-0.0398167938931298,-0.0237343511450381,0.0093526717557249
0.272,8.6947453125,-4.3556046875,3.0759953125,-0.0745968749999999,0.0019953125,-0.0378984375000001,8.16832213740458,-3.456532442748092,-3.613219465648855,-0.0397805343511451,-0.0237442748091602,0.0094412213740455
0.273,8.694671875000001,-4.355828125,3.075771875,-0.0746812499999999,0.001971875,-0.0373906250000001,8.16837709923664,-3.4564595419847333,-3.61325572519084,-0.0397442748091604,-0.0237541984732824,0.0095297709923661
0.274,8.6945984375,-4.356051562499999,3.0755484375,-0.0747656249999999,0.0019484375,-0.0368828125000001,8.168432061068701,-3.4563866412213744,-3.613291984732824,-0.0397080152671756,-0.0237641221374045,0.0096183206106867
0.275,8.694525,-4.356274999999999,3.075325,-0.0748499999999999,0.001925,-0.0363750000000001,8.168487022900763,-3.4563137404580155,-3.613328244274809,-0.0396717557251909,-0.0237740458015266,0.0097068702290073
0.276,8.694451562500001,-4.3564984375,3.0751015625,-0.0749343749999999,0.0019015625,-0.0358671875000001,8.168541984732824,-3.4562408396946567,-3.613364503816794,-0.0396354961832062,-0.0237839694656488,0.0097954198473279
0.277,8.694378125,-4.356721875,3.074878125,-0.0750187499999999,0.001878125,-0.0353593750000001,8.168596946564884,-3.456167938931298,-3.613400763358779,-0.0395992366412214,-0.0237938931297709,0.0098839694656486
0.278,8.6943046875,-4.3569453125,3.0746546875000003,-0.0751031249999999,0.0018546875,-0.0348515625000001,8.168651908396946,-3.4560950381679394,-3.6134370229007633,-0.0395629770992367,-0.0238038167938931,0.0099725190839692
0.279,8.694231250000001,-4.35716875,3.07443125,-0.0751874999999999,0.00183125,-0.0343437500000001,8.168706870229007,-3.4560221374045805,-3.613473282442748,-0.039526717557252,-0.0238137404580152,0.0100610687022898
0.28,8.6941578125,-4.3573921875,3.0742078125,-0.0752718749999999,0.0018078125,-0.0338359375000001,8.168761832061067,-3.4559492366412217,-3.6135095419847327,-0.0394904580152672,-0.0238236641221373,0.0101496183206104
0.281,8.694084375000001,-4.357615624999999,3.073984375,-0.0753562499999999,0.001784375,-0.0333281250000001,8.168816793893129,-3.455876335877863,-3.6135458015267177,-0.0394541984732825,-0.0238335877862595,0.010238167938931
0.282,8.6940109375,-4.3578390625,3.0737609375,-0.0754406249999999,0.0017609375,-0.0328203125000001,8.16887175572519,-3.455803435114504,-3.613582061068702,-0.0394179389312978,-0.0238435114503816,0.0103267175572516
0.283,8.6939375,-4.3580625,3.0735375,-0.0755249999999999,0.0017375,-0.0323125000000001,8.168926717557252,-3.455730534351145,-3.613618320610687,-0.039381679389313,-0.0238534351145037,0.0104152671755722
0.284,8.693864062500001,-4.3582859375,3.0733140625,-0.0756093749999999,0.0017140625,-0.0318046875000001,8.168981679389312,-3.4556576335877867,-3.613654580152672,-0.0393454198473283,-0.0238633587786259,0.0105038167938928
0.285,8.693790625,-4.358509375,3.073090625,-0.0756937499999999,0.001690625,-0.0312968750000001,8.169036641221373,-3.455584732824428,-3.613690839694657,-0.0393091603053436,-0.023873282442748,0.0105923664122134
0.286,8.6937171875,-4.3587328125,3.0728671875,-0.0757781249999999,0.0016671875,-0.0307890625000001,8.169091603053435,-3.455511832061069,-3.613727099236641,-0.0392729007633588,-0.0238832061068702,0.010680916030534
0.287,8.693643750000001,-4.358956249999999,3.07264375,-0.0758624999999999,0.00164375,-0.0302812500000001,8.169146564885496,-3.45543893129771,-3.613763358778626,-0.0392366412213741,-0.0238931297709923,0.0107694656488547
0.288,8.6935703125,-4.359179687499999,3.0724203125000003,-0.0759468749999999,0.0016203125,-0.0297734375000001,8.169201526717556,-3.455366030534351,-3.6137996183206105,-0.0392003816793894,-0.0239030534351144,0.0108580152671753
0.289,8.693496875000001,-4.359403125,3.072196875,-0.0760312499999999,0.001596875,-0.0292656250000001,8.169256488549618,-3.455293129770993,-3.6138358778625954,-0.0391641221374046,-0.0239129770992366,0.0109465648854959
0.29,8.6934234375,-4.3596265625,3.0719734375,-0.0761156249999999,0.0015734375,-0.0287578125000001,8.169311450381679,-3.455220229007634,-3.61387213740458,-0.0391278625954199,-0.0239229007633587,0.0110351145038165
0.291,8.69335,-4.35985,3.07175,-0.0761999999999999,0.00155,-0.0282500000000001,8.169366412213739,-3.455147328244275,-3.613908396946565,-0.0390916030534352,-0.0239328244274808,0.0111236641221371
0.292,8.693276562500001,-4.3600734375,3.0715265625,-0.0762843749999999,0.0015265625,-0.0277421875000001,8.1694213740458,-3.455074427480916,-3.61394465648855,-0.0390553435114504,-0.023942748091603,0.0112122137404577
0.293,8.693203125,-4.360296875,3.071303125,-0.0763687499999999,0.001503125,-0.0272343750000001,8.169476335877862,-3.4550015267175573,-3.6139809160305343,-0.0390190839694657,-0.0239526717557251,0.0113007633587783
0.294,8.6931296875,-4.360520312499999,3.0710796875,-0.0764531249999999,0.0014796875,-0.0267265625000001,8.169531297709923,-3.454928625954199,-3.6140171755725192,-0.038982824427481,-0.0239625954198473,0.0113893129770989
0.295,8.693056250000001,-4.36074375,3.0708562500000003,-0.0765374999999999,0.00145625,-0.0262187500000001,8.169586259541983,-3.45485572519084,-3.614053435114504,-0.0389465648854962,-0.0239725190839694,0.0114778625954195
0.296,8.6929828125,-4.3609671875,3.0706328125,-0.0766218749999999,0.0014328125,-0.0257109375000001,8.169641221374045,-3.454782824427481,-3.6140896946564887,-0.0389103053435115,-0.0239824427480915,0.0115664122137401
0.297,8.692909375000001,-4.361190625,3.070409375,-0.0767062499999999,0.001409375,-0.0252031250000001,8.169696183206106,-3.4547099236641223,-3.614125954198473,-0.0388740458015268,-0.0239923664122137,0.0116549618320608
0.298,8.6928359375,-4.3614140625,3.0701859375,-0.0767906249999999,0.0013859375,-0.0246953125000001,8.169751145038168,-3.4546370229007635,-3.614162213740458,-0.038837786259542,-0.0240022900763358,0.0117435114503814
0.299,8.6927625,-4.3616375,3.0699625,-0.0768749999999999,0.0013625,-0.0241875000000001,8.169806106870228,-3.454564122137405,-3.6141984732824426,-0.0388015267175573,-0.0240122137404579,0.011832061068702
0.3,8.692689062500001,-4.3618609375,3.0697390625,-0.0769593749999999,0.0013390625,-0.0236796875000001,8.16986106870229,-3.454491221374046,-3.614234732824428,-0.0387652671755726,-0.0240221374045801,0.0119206106870226
0.301,8.692615625,-4.362084374999999,3.069515625,-0.0770437499999999,0.001315625,-0.0231718750000001,8.16991603053435,-3.4544183206106878,-3.614270992366412,-0.0387290076335878,-0.0240320610687022,0.0120091603053432
0.302,8.6925421875,-4.3623078125,3.0692921875,-0.0771281249999999,0.0012921875,-0.0226640625000001,8.16997099236641,-3.4543454198473285,-3.614307251908397,-0.0386927480916031,-0.0240419847328243,0.0120977099236638
0.303,8.692468750000002,-4.36253125,3.06906875,-0.0772124999999999,0.00126875,-0.0221562500000001,8.170025954198472,-3.4542725190839696,-3.6143435114503815,-0.0386564885496184,-0.0240519083969465,0.0121862595419844
0.304,8.6923953125,-4.3627546875,3.0688453125,-0.0772968749999999,0.0012453125,-0.0216484375000001,8.170080916030534,-3.4541996183206107,-3.6143797709923664,-0.0386202290076337,-0.0240618320610686,0.012274809160305
0.305,8.692321875000001,-4.362978125,3.0686218750000003,-0.0773812499999999,0.001221875,-0.0211406250000001,8.170135877862595,-3.4541267175572523,-3.614416030534351,-0.0385839694656489,-0.0240717557251908,0.0123633587786256
0.306,8.6922484375,-4.3632015625,3.0683984375,-0.0774656249999999,0.0011984375,-0.0206328125000001,8.170190839694655,-3.454053816793893,-3.614452290076336,-0.0385477099236642,-0.0240816793893129,0.0124519083969463
0.307,8.692175,-4.363424999999999,3.068175,-0.0775499999999999,0.001175,-0.0201250000000001,8.170245801526717,-3.4539809160305346,-3.614488549618321,-0.0385114503816794,-0.024091603053435,0.0125404580152669
0.308,8.692101562500001,-4.3636484375,3.0679515625,-0.0776343749999999,0.0011515625,-0.0196171875000001,8.170300763358778,-3.453908015267176,-3.614524809160305,-0.0384751908396947,-0.0241015267175572,0.0126290076335875
0.309,8.692028125,-4.363871875,3.067728125,-0.0777187499999999,0.001128125,-0.0191093750000001,8.17035572519084,-3.453835114503817,-3.61456106870229,-0.03843893129771,-0.0241114503816793,0.0127175572519081
0.31,8.6919546875,-4.3640953125,3.0675046875,-0.0778031249999999,0.0011046875,-0.0186015625000001,8.1704106870229,-3.4537622137404584,-3.6145973282442743,-0.0384026717557253,-0.0241213740458015,0.0128061068702287
0.311,8.691881250000002,-4.36431875,3.06728125,-0.0778874999999999,0.00108125,-0.0180937500000001,8.170465648854961,-3.4536893129771,-3.61463358778626,-0.0383664122137405,-0.0241312977099236,0.0128946564885493
0.312,8.6918078125,-4.3645421875,3.0670578125,-0.0779718749999999,0.0010578125,-0.0175859375000001,8.170520610687023,-3.4536164122137407,-3.614669847328244,-0.0383301526717558,-0.0241412213740457,0.0129832061068699
0.313,8.691734375000001,-4.364765625,3.066834375,-0.0780562499999999,0.001034375,-0.0170781250000001,8.170575572519082,-3.453543511450382,-3.614706106870229,-0.0382938931297711,-0.0241511450381679,0.0130717557251905
0.314,8.6916609375,-4.364989062499999,3.0666109375,-0.0781406249999999,0.0010109375,-0.0165703125000001,8.170630534351144,-3.453470610687023,-3.6147423664122136,-0.0382576335877863,-0.02416106870229,0.0131603053435111
0.315,8.6915875,-4.3652125,3.0663875000000003,-0.0782249999999999,0.0009875,-0.0160625000000001,8.170685496183205,-3.453397709923665,-3.6147786259541994,-0.0382213740458016,-0.0241709923664121,0.0132488549618318
0.316,8.691514062500001,-4.3654359375,3.0661640625,-0.0783093749999999,0.0009640625,-0.0155546875000001,8.170740458015267,-3.4533248091603057,-3.614814885496183,-0.0381851145038169,-0.0241809160305343,0.0133374045801524
0.317,8.691440625,-4.365659375,3.065940625,-0.0783937499999999,0.000940625,-0.0150468750000001,8.170795419847327,-3.453251908396947,-3.614851145038168,-0.0381488549618321,-0.0241908396946564,0.013425954198473
0.318,8.691367187500001,-4.3658828125,3.0657171875,-0.0784781249999999,0.0009171875,-0.0145390625000001,8.170850381679388,-3.453179007633588,-3.614887404580153,-0.0381125954198474,-0.0242007633587785,0.0135145038167936
0.319,8.691293750000002,-4.36610625,3.06549375,-0.0785624999999999,0.00089375,-0.0140312500000001,8.17090534351145,-3.453106106870229,-3.6149236641221374,-0.0380763358778627,-0.0242106870229007,0.0136030534351142
0.32,8.6912203125,-4.3663296875,3.0652703125,-0.0786468749999999,0.0008703125,-0.0135234375000001,8.170960305343511,-3.4530332061068703,-3.614959923664122,-0.0380400763358779,-0.0242206106870228,0.0136916030534348
0.321,8.691146875000001,-4.366553125,3.065046875,-0.0787312499999999,0.000846875,-0.0130156250000001,8.171015267175571,-3.452960305343512,-3.614996183206107,-0.0380038167938932,-0.024230534351145,0.0137801526717554
0.322,8.6910734375,-4.3667765625,3.0648234375,-0.0788156249999999,0.0008234375,-0.0125078125000001,8.171070229007633,-3.452887404580153,-3.615032442748092,-0.0379675572519085,-0.0242404580152671,0.013868702290076
0.323,8.691,-4.367,3.0646,-0.0788999999999999,0.0008,-0.0120000000000001,8.171125190839694,-3.452814503816794,-3.615068702290076,-0.0379312977099237,-0.0242503816793892,0.0139572519083966
0.324,8.690704615384616,-4.366926153846154,3.064747692307692,-0.0789384615384615,0.0007153846153846,-0.0118769230769231,8.171180152671754,-3.4527416030534352,-3.615104961832061,-0.037895038167939,-0.0242603053435114,0.0140458015267172
0.325,8.690409230769232,-4.366852307692308,3.0648953846153844,-0.078976923076923,0.0006307692307692,-0.0117538461538461,8.171235114503816,-3.4526687022900764,-3.6151412213740457,-0.0378587786259543,-0.0242702290076335,0.0141343511450379
0.326,8.690113846153848,-4.366778461538462,3.065043076923077,-0.0790153846153846,0.0005461538461538,-0.0116307692307692,8.171290076335877,-3.452595801526718,-3.615177480916031,-0.0378225190839695,-0.0242801526717556,0.0142229007633585
0.327,8.689818461538461,-4.366704615384616,3.065190769230769,-0.0790538461538461,0.0004615384615384,-0.0115076923076923,8.171345038167939,-3.452522900763359,-3.615213740458015,-0.0377862595419848,-0.0242900763358778,0.0143114503816791
0.328,8.689523076923077,-4.3666307692307695,3.0653384615384613,-0.0790923076923076,0.000376923076923,-0.0113846153846154,8.171399999999998,-3.45245,-3.61525,-0.0377500000000001,-0.0242999999999999,0.0143999999999997
0.329,8.689227692307693,-4.3665569230769234,3.065486153846154,-0.0791307692307692,0.0002923076923077,-0.0112615384615384,8.17145496183206,-3.4523770992366414,-3.615286259541985,-0.0377137404580153,-0.0243099236641221,0.0144885496183203
0.33,8.688932307692308,-4.3664830769230765,3.065633846153846,-0.0791692307692307,0.0002076923076923,-0.0111384615384615,8.171509923664122,-3.4523041984732825,-3.6153225190839695,-0.0376774809160306,-0.0243198473282442,0.0145770992366409
0.331,8.688636923076924,-4.36640923076923,3.0657815384615383,-0.0792076923076923,0.0001230769230769,-0.0110153846153846,8.171564885496183,-3.452231297709924,-3.615358778625954,-0.0376412213740459,-0.0243297709923663,0.0146656488549615
0.332,8.68834153846154,-4.366335384615384,3.0659292307692305,-0.0792461538461538,3.846153846154396e-05,-0.0108923076923077,8.171619847328243,-3.452158396946565,-3.615395038167939,-0.0376049618320611,-0.0243396946564885,0.0147541984732821
0.333,8.688046153846154,-4.366261538461538,3.066076923076923,-0.0792846153846153,-4.615384615384377e-05,-0.0107692307692307,8.171674809160304,-3.4520854961832064,-3.615431297709923,-0.0375687022900764,-0.0243496183206106,0.0148427480916027
0.334,8.68775076923077,-4.366187692307692,3.0662246153846158,-0.0793230769230769,-0.0001307692307692,-0.0106461538461538,8.171729770992366,-3.4520125954198475,-3.615467557251909,-0.0375324427480917,-0.0243595419847327,0.0149312977099234
0.335,8.687455384615385,-4.366113846153846,3.0663723076923075,-0.0793615384615384,-0.0002153846153846,-0.0105230769230769,8.171784732824428,-3.4519396946564886,-3.615503816793893,-0.0374961832061069,-0.0243694656488549,0.015019847328244
0.336,8.68716,-4.36604,3.06652,-0.0794,-0.0003,-0.0103999999999999,8.171839694656487,-3.45186679389313,-3.615540076335878,-0.0374599236641222,-0.024379389312977,0.0151083969465646
0.337,8.686864615384616,-4.365966153846154,3.0666676923076923,-0.0794384615384615,-0.0003846153846153,-0.010276923076923,8.171894656488549,-3.451793893129772,-3.615576335877863,-0.0374236641221375,-0.0243893129770992,0.0151969465648852
0.338,8.686569230769232,-4.365892307692308,3.0668153846153845,-0.079476923076923,-0.0004692307692307,-0.0101538461538461,8.17194961832061,-3.4517209923664125,-3.6156125954198473,-0.0373874045801527,-0.0243992366412213,0.0152854961832058
0.339,8.686273846153847,-4.365818461538462,3.0669630769230767,-0.0795153846153846,-0.0005538461538461,-0.0100307692307692,8.17200458015267,-3.4516480916030536,-3.615648854961832,-0.037351145038168,-0.0244091603053434,0.0153740458015264
0.34,8.685978461538461,-4.365744615384616,3.0671107692307693,-0.0795538461538461,-0.0006384615384615,-0.0099076923076922,8.172059541984732,-3.4515751908396948,-3.6156851145038167,-0.0373148854961833,-0.0244190839694656,0.015462595419847
0.341,8.685683076923077,-4.3656707692307695,3.067258461538461,-0.0795923076923077,-0.0007230769230769,-0.0097846153846153,8.172114503816793,-3.451502290076336,-3.6157213740458016,-0.0372786259541985,-0.0244290076335877,0.0155511450381676
0.342,8.685387692307692,-4.365596923076923,3.0674061538461537,-0.0796307692307692,-0.0008076923076923,-0.0096615384615384,8.172169465648855,-3.451429389312977,-3.615757633587786,-0.0372423664122138,-0.0244389312977098,0.0156396946564882
0.343,8.685092307692308,-4.365523076923076,3.0675538461538463,-0.0796692307692307,-0.0008923076923077,-0.0095384615384615,8.172224427480915,-3.451356488549618,-3.615793893129771,-0.0372061068702291,-0.024448854961832,0.0157282442748088
0.344,8.684796923076924,-4.36544923076923,3.0677015384615385,-0.0797076923076923,-0.0009769230769231,-0.0094153846153845,8.172279389312976,-3.45128358778626,-3.615830152671756,-0.0371698473282443,-0.0244587786259541,0.0158167938931295
0.345,8.68450153846154,-4.365375384615384,3.0678492307692307,-0.0797461538461538,-0.0010615384615384,-0.0092923076923076,8.172334351145038,-3.451210687022901,-3.615866412213741,-0.0371335877862596,-0.0244687022900763,0.0159053435114501
0.346,8.684206153846153,-4.365301538461538,3.0679969230769237,-0.0797846153846154,-0.0011461538461538,-0.0091692307692307,8.1723893129771,-3.451137786259542,-3.615902671755725,-0.0370973282442749,-0.0244786259541984,0.0159938931297707
0.347,8.683910769230769,-4.365227692307692,3.0681446153846155,-0.0798230769230769,-0.0012307692307692,-0.0090461538461537,8.172444274809159,-3.451064885496184,-3.61593893129771,-0.0370610687022901,-0.0244885496183205,0.0160824427480913
0.348,8.683615384615385,-4.365153846153846,3.068292307692308,-0.0798615384615384,-0.0013153846153846,-0.0089230769230768,8.17249923664122,-3.4509919847328248,-3.6159751908396944,-0.0370248091603054,-0.0244984732824427,0.0161709923664119
0.349,8.68332,-4.36508,3.06844,-0.0799,-0.0014,-0.0087999999999999,8.172554198473282,-3.450919083969466,-3.61601145038168,-0.0369885496183207,-0.0245083969465648,0.0162595419847325
0.35,8.683024615384616,-4.365006153846154,3.0685876923076925,-0.0799384615384615,-0.0014846153846154,-0.008676923076923,8.172609160305342,-3.450846183206107,-3.616047709923664,-0.0369522900763359,-0.0245183206106869,0.0163480916030531
0.351,8.682729230769231,-4.364932307692308,3.0687353846153846,-0.0799769230769231,-0.0015692307692308,-0.008553846153846,8.172664122137403,-3.450773282442748,-3.616083969465649,-0.0369160305343512,-0.0245282442748091,0.0164366412213737
0.352,8.682433846153845,-4.364858461538462,3.068883076923077,-0.0800153846153846,-0.0016538461538462,-0.0084307692307691,8.172719083969465,-3.4507003816793893,-3.6161202290076337,-0.0368797709923665,-0.0245381679389312,0.0165251908396943
0.353,8.682138461538461,-4.364784615384616,3.069030769230769,-0.0800538461538461,-0.0017384615384615,-0.0083076923076922,8.172774045801527,-3.450627480916031,-3.616156488549618,-0.0368435114503817,-0.0245480916030534,0.0166137404580149
0.354,8.681843076923077,-4.364710769230769,3.0691784615384616,-0.0800923076923077,-0.0018230769230769,-0.0081846153846153,8.172829007633586,-3.450554580152672,-3.616192748091603,-0.036807251908397,-0.0245580152671755,0.0167022900763356
0.355,8.681547692307692,-4.364636923076922,3.069326153846154,-0.0801307692307692,-0.0019076923076923,-0.0080615384615383,8.172883969465648,-3.450481679389313,-3.616229007633588,-0.0367709923664123,-0.0245679389312976,0.0167908396946562
0.356,8.681252307692308,-4.364563076923076,3.069473846153846,-0.0801692307692308,-0.0019923076923077,-0.0079384615384614,8.17293893129771,-3.4504087786259543,-3.6162652671755726,-0.0367347328244275,-0.0245778625954198,0.0168793893129768
0.357,8.680956923076923,-4.36448923076923,3.069621538461538,-0.0802076923076923,-0.0020769230769231,-0.0078153846153845,8.172993893129771,-3.4503358778625954,-3.616301526717557,-0.0366984732824428,-0.0245877862595419,0.0169679389312974
0.358,8.680661538461537,-4.364415384615384,3.069769230769231,-0.0802461538461538,-0.0021615384615385,-0.0076923076923075,8.17304885496183,-3.450262977099237,-3.616337786259542,-0.0366622137404581,-0.024597709923664,0.017056488549618
0.359,8.680366153846153,-4.364341538461538,3.069916923076923,-0.0802846153846154,-0.0022461538461539,-0.0075692307692306,8.173103816793892,-3.450190076335878,-3.616374045801527,-0.0366259541984733,-0.0246076335877862,0.0171450381679386
0.36,8.680070769230769,-4.364267692307692,3.070064615384616,-0.0803230769230769,-0.0023307692307693,-0.0074461538461537,8.173158778625954,-3.4501171755725197,-3.616410305343512,-0.0365896946564886,-0.0246175572519083,0.0172335877862592
0.361,8.679775384615384,-4.364193846153846,3.070212307692308,-0.0803615384615385,-0.0024153846153846,-0.0073230769230768,8.173213740458014,-3.4500442748091604,-3.616446564885496,-0.0365534351145039,-0.0246274809160305,0.0173221374045798
0.362,8.67948,-4.36412,3.07036,-0.0804,-0.0025,-0.0071999999999998,8.173268702290075,-3.4499713740458016,-3.616482824427481,-0.0365171755725192,-0.0246374045801526,0.0174106870229004
0.363,8.679184615384615,-4.364046153846154,3.070507692307692,-0.0804384615384615,-0.0025846153846154,-0.0070769230769229,8.173323664122137,-3.449898473282443,-3.6165190839694654,-0.0364809160305344,-0.0246473282442747,0.0174992366412211
0.364,8.678889230769231,-4.363972307692308,3.070655384615385,-0.0804769230769231,-0.0026692307692308,-0.006953846153846,8.173378625954198,-3.4498255725190843,-3.6165553435114495,-0.0364446564885497,-0.0246572519083969,0.0175877862595417
0.365,8.678593846153845,-4.3638984615384615,3.070803076923077,-0.0805153846153846,-0.0027538461538462,-0.0068307692307691,8.173433587786258,-3.4497526717557254,-3.6165916030534353,-0.0364083969465649,-0.024667175572519,0.0176763358778623
0.366,8.67829846153846,-4.363824615384615,3.070950769230769,-0.0805538461538462,-0.0028384615384616,-0.0067076923076921,8.17348854961832,-3.4496797709923666,-3.61662786259542,-0.0363721374045802,-0.0246770992366411,0.0177648854961829
0.367,8.678003076923076,-4.363750769230769,3.0710984615384618,-0.0805923076923077,-0.002923076923077,-0.0065846153846152,8.173543511450381,-3.449606870229008,-3.6166641221374047,-0.0363358778625955,-0.0246870229007633,0.0178534351145035
0.368,8.677707692307692,-4.363676923076922,3.071246153846154,-0.0806307692307692,-0.0030076923076924,-0.0064615384615383,8.173598473282443,-3.449533969465649,-3.616700381679389,-0.0362996183206108,-0.0246969465648854,0.0179419847328241
0.369,8.677412307692308,-4.363603076923076,3.071393846153846,-0.0806692307692308,-0.0030923076923077,-0.0063384615384613,8.173653435114502,-3.4494610687022904,-3.616736641221374,-0.036263358778626,-0.0247068702290076,0.0180305343511447
0.37,8.677116923076923,-4.36352923076923,3.0715415384615383,-0.0807076923076923,-0.0031769230769231,-0.0062153846153844,8.173708396946564,-3.4493881679389315,-3.616772900763359,-0.0362270992366413,-0.0247167938931297,0.0181190839694653
0.371,8.676821538461537,-4.363455384615384,3.071689230769231,-0.0807461538461539,-0.0032615384615385,-0.0060923076923075,8.173763358778626,-3.4493152671755727,-3.616809160305344,-0.0361908396946566,-0.0247267175572518,0.0182076335877859
0.372,8.676526153846153,-4.363381538461538,3.071836923076923,-0.0807846153846154,-0.0033461538461539,-0.0059692307692306,8.173818320610685,-3.449242366412214,-3.616845419847328,-0.0361545801526718,-0.024736641221374,0.0182961832061065
0.373,8.676230769230768,-4.363307692307692,3.0719846153846158,-0.0808230769230769,-0.0034307692307693,-0.0058461538461536,8.173873282442747,-3.449169465648855,-3.616881679389313,-0.0361183206106871,-0.0247465648854961,0.0183847328244272
0.374,8.675935384615384,-4.363233846153846,3.072132307692308,-0.0808615384615385,-0.0035153846153847,-0.0057230769230767,8.173928244274808,-3.4490965648854965,-3.6169179389312975,-0.0360820610687024,-0.0247564885496182,0.0184732824427478
0.375,8.67564,-4.36316,3.07228,-0.0809,-0.0036000000000001,-0.0055999999999998,8.17398320610687,-3.4490236641221377,-3.6169541984732825,-0.0360458015267176,-0.0247664122137404,0.0185618320610684
0.376,8.675344615384615,-4.363086153846154,3.0724276923076923,-0.0809384615384616,-0.0036846153846155,-0.0054769230769228,8.17403816793893,-3.448950763358779,-3.616990458015267,-0.0360095419847329,-0.0247763358778625,0.018650381679389
0.377,8.675049230769229,-4.363012307692308,3.0725753846153845,-0.0809769230769231,-0.0037692307692308,-0.0053538461538459,8.174093129770991,-3.44887786259542,-3.617026717557252,-0.0359732824427482,-0.0247862595419847,0.0187389312977096
0.378,8.674753846153845,-4.362938461538461,3.072723076923077,-0.0810153846153846,-0.0038538461538462,-0.005230769230769,8.174148091603053,-3.448804961832061,-3.617062977099237,-0.0359370229007634,-0.0247961832061068,0.0188274809160302
0.379,8.67445846153846,-4.362864615384615,3.0728707692307693,-0.0810538461538462,-0.0039384615384616,-0.0051076923076921,8.174203053435114,-3.4487320610687027,-3.617099236641221,-0.0359007633587787,-0.0248061068702289,0.0189160305343508
0.38,8.674163076923076,-4.362790769230768,3.073018461538461,-0.0810923076923077,-0.004023076923077,-0.0049846153846151,8.174258015267174,-3.448659160305344,-3.6171354961832063,-0.035864503816794,-0.0248160305343511,0.0190045801526714
0.381,8.673867692307692,-4.362716923076922,3.073166153846154,-0.0811307692307693,-0.0041076923076924,-0.0048615384615382,8.174312977099236,-3.448586259541985,-3.617171755725191,-0.0358282442748092,-0.0248259541984732,0.019093129770992
0.382,8.673572307692307,-4.362643076923076,3.0733138461538463,-0.0811692307692308,-0.0041923076923078,-0.0047384615384613,8.174367938931297,-3.448513358778626,-3.617208015267176,-0.0357919847328245,-0.0248358778625953,0.0191816793893127
0.383,8.673276923076921,-4.36256923076923,3.0734615384615385,-0.0812076923076923,-0.0042769230769232,-0.0046153846153844,8.174422900763359,-3.448440458015267,-3.61724427480916,-0.0357557251908398,-0.0248458015267175,0.0192702290076333
0.384,8.672981538461537,-4.362495384615384,3.07360923076923,-0.0812461538461539,-0.0043615384615386,-0.0044923076923074,8.174477862595419,-3.4483675572519084,-3.617280534351145,-0.035719465648855,-0.0248557251908396,0.0193587786259539
0.385,8.672686153846152,-4.362421538461538,3.0737569230769237,-0.0812846153846154,-0.0044461538461539,-0.0043692307692305,8.17453282442748,-3.44829465648855,-3.6173167938931297,-0.0356832061068703,-0.0248656488549618,0.0194473282442745
0.386,8.672390769230768,-4.362347692307692,3.0739046153846155,-0.081323076923077,-0.0045307692307693,-0.0042461538461536,8.174587786259542,-3.448221755725191,-3.6173530534351146,-0.0356469465648856,-0.0248755725190839,0.0195358778625951
0.387,8.672095384615384,-4.362273846153846,3.074052307692308,-0.0813615384615385,-0.0046153846153847,-0.0041230769230766,8.174642748091602,-3.448148854961832,-3.617389312977099,-0.0356106870229008,-0.024885496183206,0.0196244274809157
0.388,8.6718,-4.3622000000000005,3.0742,-0.0814,-0.0047,-0.004,8.174697709923663,-3.4480759541984733,-3.617425572519084,-0.0355744274809161,-0.0248954198473282,0.0197129770992363
0.389,8.671873846153845,-4.362495384615385,3.0739046153846146,-0.0814015384615384,-0.0047307692307692,-0.0040369230769231,8.174752671755725,-3.4480030534351145,-3.617461832061069,-0.0355381679389314,-0.0249053435114503,0.0198015267175569
0.39,8.671947692307691,-4.362790769230769,3.07360923076923,-0.0814030769230769,-0.0047615384615385,-0.0040738461538462,8.174807633587786,-3.447930152671756,-3.6174980916030535,-0.0355019083969466,-0.0249152671755724,0.0198900763358775
0.391,8.672021538461538,-4.363086153846154,3.0733138461538454,-0.0814046153846153,-0.0047923076923077,-0.0041107692307692,8.174862595419846,-3.447857251908397,-3.617534351145038,-0.0354656488549619,-0.0249251908396946,0.0199786259541982
0.392,8.672095384615384,-4.363381538461539,3.073018461538461,-0.0814061538461538,-0.0048230769230769,-0.0041476923076923,8.174917557251907,-3.4477843511450383,-3.617570610687023,-0.0354293893129772,-0.0249351145038167,0.0200671755725188
0.393,8.67216923076923,-4.363676923076923,3.072723076923076,-0.0814076923076923,-0.0048538461538462,-0.0041846153846154,8.174972519083969,-3.4477114503816795,-3.617606870229008,-0.0353931297709924,-0.0249450381679389,0.0201557251908394
0.394,8.672243076923076,-4.363972307692308,3.072427692307692,-0.0814092307692307,-0.0048846153846154,-0.0042215384615385,8.17502748091603,-3.4476385496183206,-3.617643129770992,-0.0353568702290077,-0.024954961832061,0.02024427480916
0.395,8.672316923076922,-4.364267692307693,3.072132307692307,-0.0814107692307692,-0.0049153846153846,-0.0042584615384615,8.17508244274809,-3.447565648854962,-3.617679389312977,-0.035320610687023,-0.0249648854961831,0.0203328244274806
0.396,8.672390769230768,-4.364563076923077,3.0718369230769227,-0.0814123076923077,-0.0049461538461538,-0.0042953846153846,8.175137404580152,-3.4474927480916038,-3.6177156488549618,-0.0352843511450382,-0.0249748091603053,0.0204213740458012
0.397,8.672464615384614,-4.364858461538462,3.071541538461538,-0.0814138461538461,-0.0049769230769231,-0.0043323076923077,8.175192366412213,-3.4474198473282445,-3.6177519083969463,-0.0352480916030535,-0.0249847328244274,0.0205099236641218
0.398,8.672538461538462,-4.365153846153846,3.071246153846153,-0.0814153846153846,-0.0050076923076923,-0.0043692307692308,8.175247328244273,-3.4473469465648856,-3.617788167938931,-0.0352118320610688,-0.0249946564885495,0.0205984732824424
0.399,8.672612307692308,-4.365449230769231,3.0709507692307687,-0.081416923076923,-0.0050384615384615,-0.0044061538461538,8.175302290076335,-3.4472740458015267,-3.617824427480916,-0.035175572519084,-0.0250045801526717,0.020687022900763
0.4,8.672686153846154,-4.365744615384616,3.0706553846153843,-0.0814184615384615,-0.0050692307692308,-0.0044430769230769,8.175357251908396,-3.447201145038168,-3.6178606870229006,-0.0351393129770993,-0.0250145038167938,0.0207755725190836
0.401,8.67276,-4.36604,3.0703599999999995,-0.08142,-0.0051,-0.00448,8.175412213740458,-3.447128244274809,-3.6178969465648856,-0.0351030534351146,-0.025024427480916,0.0208641221374043
0.402,8.672833846153846,-4.366335384615384,3.070064615384615,-0.0814215384615384,-0.0051307692307692,-0.0045169230769231,8.175467175572518,-3.4470553435114506,-3.61793320610687,-0.0350667938931298,-0.0250343511450381,0.0209526717557249
0.403,8.672907692307692,-4.3666307692307695,3.0697692307692304,-0.0814230769230769,-0.0051615384615384,-0.0045538461538461,8.17552213740458,-3.446982442748092,-3.617969465648855,-0.0350305343511451,-0.0250442748091602,0.0210412213740455
0.404,8.672981538461539,-4.366926153846154,3.069473846153846,-0.0814246153846153,-0.0051923076923077,-0.0045907692307692,8.17557709923664,-3.446909541984733,-3.61800572519084,-0.0349942748091604,-0.0250541984732824,0.0211297709923661
0.405,8.673055384615385,-4.367221538461538,3.069178461538461,-0.0814261538461538,-0.0052230769230769,-0.0046276923076923,8.175632061068702,-3.446836641221374,-3.618041984732825,-0.0349580152671756,-0.0250641221374045,0.0212183206106867
0.406,8.67312923076923,-4.367516923076923,3.068883076923077,-0.0814276923076923,-0.0052538461538461,-0.0046646153846154,8.175687022900762,-3.446763740458016,-3.618078244274809,-0.0349217557251909,-0.0250740458015266,0.0213068702290073
0.407,8.673203076923077,-4.367812307692308,3.068587692307692,-0.0814292307692307,-0.0052846153846154,-0.0047015384615384,8.175741984732824,-3.4466908396946567,-3.618114503816794,-0.0348854961832062,-0.0250839694656488,0.0213954198473279
0.408,8.673276923076923,-4.368107692307692,3.068292307692308,-0.0814307692307692,-0.0053153846153846,-0.0047384615384615,8.175796946564885,-3.446617938931298,-3.6181507633587775,-0.0348492366412214,-0.0250938931297709,0.0214839694656485
0.409,8.673350769230769,-4.368403076923077,3.067996923076923,-0.0814323076923076,-0.0053461538461538,-0.0047753846153846,8.175851908396945,-3.446545038167939,-3.6181870229007633,-0.0348129770992367,-0.0251038167938931,0.0215725190839691
0.41,8.673424615384615,-4.368698461538462,3.0677015384615385,-0.0814338461538461,-0.005376923076923,-0.0048123076923077,8.175906870229007,-3.44647213740458,-3.618223282442748,-0.034776717557252,-0.0251137404580152,0.0216610687022898
0.411,8.673498461538461,-4.368993846153846,3.0674061538461537,-0.0814353846153846,-0.0054076923076923,-0.0048492307692307,8.175961832061068,-3.4463992366412217,-3.6182595419847328,-0.0347404580152672,-0.0251236641221373,0.0217496183206104
0.412,8.673572307692307,-4.369289230769231,3.0671107692307693,-0.081436923076923,-0.0054384615384615,-0.0048861538461538,8.17601679389313,-3.446326335877863,-3.6182958015267177,-0.0347041984732825,-0.0251335877862595,0.021838167938931
0.413,8.673646153846153,-4.369584615384615,3.0668153846153845,-0.0814384615384615,-0.0054692307692307,-0.0049230769230769,8.17607175572519,-3.446253435114504,-3.618332061068702,-0.0346679389312978,-0.0251435114503816,0.0219267175572516
0.414,8.67372,-4.36988,3.06652,-0.08144,-0.0055,-0.0049599999999999,8.176126717557251,-3.446180534351145,-3.618368320610687,-0.034631679389313,-0.0251534351145037,0.0220152671755722
0.415,8.673793846153846,-4.370175384615385,3.0662246153846158,-0.0814415384615384,-0.0055307692307692,-0.004996923076923,8.176181679389313,-3.4461076335877863,-3.618404580152672,-0.0345954198473283,-0.0251633587786259,0.0221038167938928
0.416,8.673867692307692,-4.370470769230769,3.065929230769231,-0.0814430769230769,-0.0055615384615384,-0.0050338461538461,8.176236641221374,-3.4460347328244274,-3.618440839694657,-0.0345591603053436,-0.025173282442748,0.0221923664122134
0.417,8.673941538461538,-4.370766153846153,3.065633846153846,-0.0814446153846153,-0.0055923076923076,-0.0050707692307692,8.176291603053434,-3.445961832061069,-3.618477099236641,-0.0345229007633588,-0.0251832061068702,0.022280916030534
0.418,8.674015384615384,-4.3710615384615386,3.065338461538462,-0.0814461538461538,-0.0056230769230769,-0.0051076923076922,8.176346564885495,-3.44588893129771,-3.618513358778626,-0.0344866412213741,-0.0251931297709923,0.0223694656488546
0.419,8.67408923076923,-4.371356923076923,3.065043076923077,-0.0814476923076923,-0.0056538461538461,-0.0051446153846153,8.176401526717557,-3.4458160305343517,-3.6185496183206105,-0.0344503816793894,-0.0252030534351144,0.0224580152671752
0.42,8.674163076923076,-4.371652307692307,3.0647476923076926,-0.0814492307692307,-0.0056846153846153,-0.0051815384615384,8.176456488549617,-3.4457431297709924,-3.618585877862595,-0.0344141221374047,-0.0252129770992366,0.0225465648854959
0.421,8.674236923076922,-4.371947692307692,3.064452307692308,-0.0814507692307692,-0.0057153846153845,-0.0052184615384615,8.176511450381678,-3.445670229007633,-3.61862213740458,-0.0343778625954199,-0.0252229007633587,0.0226351145038165
0.422,8.67431076923077,-4.372243076923077,3.0641569230769234,-0.0814523076923077,-0.0057461538461538,-0.0052553846153845,8.17656641221374,-3.445597328244275,-3.618658396946565,-0.0343416030534352,-0.0252328244274808,0.0227236641221371
0.423,8.674384615384616,-4.372538461538461,3.063861538461538,-0.0814538461538461,-0.005776923076923,-0.0052923076923076,8.176621374045801,-3.4455244274809163,-3.61869465648855,-0.0343053435114504,-0.025242748091603,0.0228122137404577
0.424,8.674458461538462,-4.372833846153846,3.0635661538461543,-0.0814553846153846,-0.0058076923076922,-0.0053292307692307,8.176676335877861,-3.4454515267175574,-3.6187309160305343,-0.0342690839694657,-0.0252526717557251,0.0229007633587783
0.425,8.674532307692308,-4.373129230769231,3.063270769230769,-0.081456923076923,-0.0058384615384615,-0.0053661538461538,8.176731297709923,-3.4453786259541985,-3.6187671755725193,-0.034232824427481,-0.0252625954198472,0.0229893129770989
0.426,8.674606153846154,-4.373424615384615,3.062975384615385,-0.0814584615384615,-0.0058692307692307,-0.0054030769230768,8.176786259541984,-3.44530572519084,-3.618803435114504,-0.0341965648854963,-0.0252725190839694,0.0230778625954195
0.427,8.67468,-4.37372,3.0626800000000003,-0.08146,-0.0058999999999999,-0.0054399999999999,8.176841221374046,-3.445232824427481,-3.6188396946564887,-0.0341603053435115,-0.0252824427480915,0.0231664122137401
0.428,8.674753846153846,-4.374015384615384,3.062384615384616,-0.0814615384615384,-0.0059307692307691,-0.005476923076923,8.176896183206106,-3.4451599236641224,-3.618875954198473,-0.0341240458015268,-0.0252923664122137,0.0232549618320607
0.429,8.674827692307693,-4.374310769230769,3.062089230769231,-0.0814630769230769,-0.0059615384615384,-0.0055138461538461,8.176951145038167,-3.4450870229007635,-3.618912213740458,-0.0340877862595421,-0.0253022900763358,0.0233435114503814
0.43,8.674901538461539,-4.374606153846154,3.0617938461538468,-0.0814646153846153,-0.0059923076923076,-0.0055507692307691,8.177006106870229,-3.4450141221374047,-3.618948473282442,-0.0340515267175573,-0.0253122137404579,0.023432061068702
0.431,8.674975384615385,-4.374901538461538,3.061498461538462,-0.0814661538461538,-0.0060230769230768,-0.0055876923076922,8.177061068702288,-3.444941221374046,-3.618984732824428,-0.0340152671755726,-0.0253221374045801,0.0235206106870226
0.432,8.67504923076923,-4.375196923076922,3.0612030769230776,-0.0814676923076923,-0.0060538461538461,-0.0056246153846153,8.17711603053435,-3.444868320610687,-3.619020992366412,-0.0339790076335879,-0.0253320610687022,0.0236091603053432
0.433,8.675123076923077,-4.375492307692308,3.0609076923076928,-0.0814692307692307,-0.0060846153846153,-0.0056615384615384,8.177170992366412,-3.4447954198473285,-3.619057251908397,-0.0339427480916031,-0.0253419847328243,0.0236977099236638
0.434,8.675196923076923,-4.375787692307692,3.0606123076923084,-0.0814707692307692,-0.0061153846153845,-0.0056984615384614,8.177225954198473,-3.4447225190839696,-3.6190935114503815,-0.0339064885496184,-0.0253519083969465,0.0237862595419844
0.435,8.67527076923077,-4.376083076923076,3.060316923076924,-0.0814723076923076,-0.0061461538461537,-0.0057353846153845,8.177280916030533,-3.444649618320611,-3.6191297709923664,-0.0338702290076337,-0.0253618320610686,0.023874809160305
0.436,8.675344615384615,-4.376378461538461,3.0600215384615392,-0.0814738461538461,-0.006176923076923,-0.0057723076923076,8.177335877862594,-3.444576717557252,-3.619166030534351,-0.0338339694656489,-0.0253717557251908,0.0239633587786256
0.437,8.675418461538461,-4.376673846153846,3.0597261538461544,-0.0814753846153846,-0.0062076923076922,-0.0058092307692307,8.177390839694656,-3.444503816793893,-3.619202290076336,-0.0337977099236642,-0.0253816793893129,0.0240519083969462
0.438,8.675492307692307,-4.37696923076923,3.05943076923077,-0.081476923076923,-0.0062384615384614,-0.0058461538461537,8.177445801526718,-3.444430916030534,-3.619238549618321,-0.0337614503816795,-0.025391603053435,0.0241404580152668
0.439,8.675566153846153,-4.377264615384615,3.0591353846153853,-0.0814784615384615,-0.0062692307692307,-0.0058830769230768,8.177500763358777,-3.444358015267176,-3.619274809160305,-0.0337251908396947,-0.0254015267175572,0.0242290076335875
0.44,8.67564,-4.37756,3.058840000000001,-0.08148,-0.0062999999999999,-0.0059199999999999,8.177555725190839,-3.444285114503817,-3.61931106870229,-0.03368893129771,-0.0254114503816793,0.0243175572519081
0.441,8.675713846153846,-4.377855384615384,3.058544615384616,-0.0814815384615384,-0.0063307692307691,-0.005956923076923,8.1776106870229,-3.444212213740458,-3.6193473282442743,-0.0336526717557253,-0.0254213740458014,0.0244061068702287
0.442,8.675787692307692,-4.378150769230769,3.058249230769232,-0.0814830769230769,-0.0063615384615383,-0.005993846153846,8.177665648854962,-3.444139312977099,-3.61938358778626,-0.0336164122137405,-0.0254312977099236,0.0244946564885493
0.443,8.675861538461538,-4.378446153846153,3.057953846153847,-0.0814846153846153,-0.0063923076923076,-0.0060307692307691,8.177720610687022,-3.4440664122137408,-3.619419847328244,-0.0335801526717558,-0.0254412213740457,0.0245832061068699
0.444,8.675935384615384,-4.378741538461538,3.0576584615384625,-0.0814861538461538,-0.0064230769230768,-0.0060676923076922,8.177775572519083,-3.443993511450382,-3.619456106870229,-0.0335438931297711,-0.0254511450381679,0.0246717557251905
0.445,8.676009230769232,-4.379036923076923,3.0573630769230777,-0.0814876923076923,-0.006453846153846,-0.0061046153846152,8.177830534351145,-3.443920610687023,-3.6194923664122136,-0.0335076335877863,-0.02546106870229,0.0247603053435111
0.446,8.676083076923078,-4.379332307692307,3.057067692307693,-0.0814892307692307,-0.0064846153846153,-0.0061415384615383,8.177885496183205,-3.443847709923664,-3.619528625954199,-0.0334713740458016,-0.0254709923664121,0.0248488549618317
0.447,8.676156923076924,-4.379627692307691,3.056772307692309,-0.0814907692307692,-0.0065153846153845,-0.0061784615384614,8.177940458015266,-3.4437748091603053,-3.619564885496183,-0.0334351145038169,-0.0254809160305343,0.0249374045801523
0.448,8.67623076923077,-4.379923076923077,3.056476923076924,-0.0814923076923077,-0.0065461538461537,-0.0062153846153845,8.177995419847328,-3.4437019083969465,-3.619601145038168,-0.0333988549618321,-0.0254908396946564,0.025025954198473
0.449,8.676304615384616,-4.380218461538461,3.0561815384615394,-0.0814938461538461,-0.0065769230769229,-0.0062523076923075,8.17805038167939,-3.443629007633588,-3.619637404580153,-0.0333625954198474,-0.0255007633587785,0.0251145038167936
0.45,8.676378461538462,-4.380513846153845,3.0558861538461546,-0.0814953846153846,-0.0066076923076922,-0.0062892307692306,8.178105343511449,-3.443556106870229,-3.6196736641221374,-0.0333263358778627,-0.0255106870229007,0.0252030534351142
0.451,8.676452307692308,-4.38080923076923,3.05559076923077,-0.081496923076923,-0.0066384615384614,-0.0063261538461537,8.17816030534351,-3.4434832061068703,-3.619709923664122,-0.0332900763358779,-0.0255206106870228,0.0252916030534348
0.452,8.676526153846154,-4.381104615384615,3.0552953846153854,-0.0814984615384615,-0.0066692307692306,-0.0063630769230768,8.178215267175572,-3.4434103053435114,-3.619746183206107,-0.0332538167938932,-0.025530534351145,0.0253801526717554
0.453,8.6766,-4.381399999999999,3.055000000000001,-0.0815,-0.0066999999999999,-0.0063999999999998,8.178270229007634,-3.4433374045801526,-3.619782442748092,-0.0332175572519085,-0.0255404580152671,0.025468702290076
0.454,8.6766,-4.381178461538463,3.055,-0.0814738461538462,-0.006663076923077,-0.0064692307692305,8.178325190839693,-3.443264503816794,-3.619818702290076,-0.0331812977099237,-0.0255503816793892,0.0255572519083966
0.455,8.6766,-4.380956923076924,3.055,-0.0814476923076923,-0.0066261538461539,-0.0065384615384613,8.178380152671755,-3.4431916030534357,-3.619854961832061,-0.033145038167939,-0.0255603053435114,0.0256458015267172
0.456,8.6766,-4.380735384615385,3.055,-0.0814215384615385,-0.0065892307692308,-0.0066076923076921,8.178435114503817,-3.4431187022900764,-3.6198912213740457,-0.0331087786259543,-0.0255702290076335,0.0257343511450378
0.457,8.6766,-4.380513846153847,3.055,-0.0813953846153846,-0.0065523076923077,-0.0066769230769228,8.178490076335876,-3.4430458015267176,-3.619927480916031,-0.0330725190839695,-0.0255801526717556,0.0258229007633584
0.458,8.6766,-4.380292307692309,3.055,-0.0813692307692308,-0.0065153846153847,-0.0067461538461536,8.178545038167938,-3.4429729007633587,-3.619963740458015,-0.0330362595419848,-0.0255900763358778,0.0259114503816791
0.459,8.6766,-4.38007076923077,3.055,-0.0813430769230769,-0.0064784615384616,-0.0068153846153844,8.1786,-3.4429000000000003,-3.62,-0.0330000000000001,-0.0255999999999999,0.0259999999999997
0.46,8.6766,-4.379849230769231,3.055,-0.0813169230769231,-0.0064415384615385,-0.0068846153846151,8.178624489795917,-3.4428877551020407,-3.6200244897959184,-0.0329979591836734,-0.0255974489795918,0.0260015306122448
0.461,8.6766,-4.379627692307693,3.055,-0.0812907692307693,-0.0064046153846154,-0.0069538461538459,8.178648979591836,-3.4428755102040816,-3.6200489795918367,-0.0329959183673469,-0.0255948979591836,0.0260030612244897
0.462,8.6766,-4.379406153846155,3.055,-0.0812646153846154,-0.0063676923076924,-0.0070230769230767,8.178673469387755,-3.4428632653061224,-3.620073469387755,-0.0329938775510204,-0.0255923469387755,0.0260045918367346
0.463,8.6766,-4.379184615384616,3.055,-0.0812384615384616,-0.0063307692307693,-0.0070923076923075,8.178697959183673,-3.4428510204081637,-3.6200979591836737,-0.0329918367346938,-0.0255897959183673,0.0260061224489795
0.464,8.6766,-4.378963076923077,3.055,-0.0812123076923077,-0.0062938461538462,-0.0071615384615382,8.178722448979592,-3.442838775510204,-3.620122448979592,-0.0329897959183673,-0.0255872448979591,0.0260076530612244
0.465,8.6766,-4.378741538461539,3.055,-0.0811861538461539,-0.0062569230769231,-0.007230769230769,8.17874693877551,-3.442826530612245,-3.6201469387755103,-0.0329877551020408,-0.025584693877551,0.0260091836734693
0.466,8.6766,-4.378520000000001,3.055,-0.08116,-0.00622,-0.0072999999999998,8.178771428571428,-3.4428142857142854,-3.6201714285714286,-0.0329857142857142,-0.0255821428571428,0.0260107142857142
0.467,8.6766,-4.378298461538463,3.055,-0.0811338461538462,-0.006183076923077,-0.0073692307692306,8.178795918367346,-3.4428020408163262,-3.620195918367347,-0.0329836734693877,-0.0255795918367347,0.0260122448979591
0.468,8.6766,-4.378076923076923,3.055,-0.0811076923076923,-0.0061461538461539,-0.0074384615384613,8.178820408163265,-3.442789795918367,-3.620220408163265,-0.0329816326530612,-0.0255770408163265,0.026013775510204
0.469,8.6766,-4.377855384615385,3.055,-0.0810815384615385,-0.0061092307692308,-0.0075076923076921,8.178844897959182,-3.442777551020408,-3.620244897959184,-0.0329795918367347,-0.0255744897959183,0.0260153061224489
0.47,8.6766,-4.377633846153847,3.055,-0.0810553846153846,-0.0060723076923077,-0.0075769230769229,8.178869387755102,-3.442765306122449,-3.620269387755102,-0.0329775510204081,-0.0255719387755102,0.0260168367346938
0.471,8.6766,-4.377412307692309,3.055,-0.0810292307692308,-0.0060353846153847,-0.0076461538461536,8.178893877551019,-3.4427530612244897,-3.620293877551021,-0.0329755102040816,-0.025569387755102,0.0260183673469387
0.472,8.6766,-4.377190769230769,3.055,-0.0810030769230769,-0.0059984615384616,-0.0077153846153844,8.178918367346938,-3.4427408163265305,-3.620318367346939,-0.0329734693877551,-0.0255668367346938,0.0260198979591836
0.473,8.6766,-4.376969230769231,3.055,-0.0809769230769231,-0.0059615384615385,-0.0077846153846152,8.178942857142857,-3.442728571428572,-3.620342857142857,-0.0329714285714285,-0.0255642857142857,0.0260214285714285
0.474,8.6766,-4.376747692307693,3.055,-0.0809507692307692,-0.0059246153846154,-0.007853846153846,8.178967346938775,-3.442716326530612,-3.620367346938776,-0.032969387755102,-0.0255617346938775,0.0260229591836734
0.475,8.6766,-4.376526153846155,3.055,-0.0809246153846154,-0.0058876923076923,-0.0079230769230767,8.178991836734694,-3.442704081632653,-3.620391836734694,-0.0329673469387755,-0.0255591836734693,0.0260244897959183
0.476,8.6766,-4.376304615384616,3.055,-0.0808984615384616,-0.0058507692307693,-0.0079923076923075,8.179016326530611,-3.442691836734694,-3.620416326530613,-0.0329653061224489,-0.0255566326530612,0.0260260204081632
0.477,8.6766,-4.376083076923077,3.055,-0.0808723076923077,-0.0058138461538462,-0.0080615384615383,8.17904081632653,-3.4426795918367348,-3.6204408163265303,-0.0329632653061224,-0.025554081632653,0.0260275510204081
0.478,8.6766,-4.375861538461539,3.055,-0.0808461538461539,-0.0057769230769231,-0.008130769230769,8.179065306122448,-3.442667346938775,-3.620465306122449,-0.0329612244897959,-0.0255515306122449,0.026029081632653
0.479,8.6766,-4.375640000000001,3.055,-0.08082,-0.00574,-0.0081999999999998,8.179089795918367,-3.442655102040816,-3.6204897959183673,-0.0329591836734693,-0.0255489795918367,0.0260306122448979
0.48,8.6766,-4.375418461538462,3.055,-0.0807938461538462,-0.0057030769230769,-0.0082692307692306,8.179114285714284,-3.442642857142857,-3.6205142857142856,-0.0329571428571428,-0.0255464285714285,0.0260321428571428
0.481,8.6766,-4.375196923076923,3.055,-0.0807676923076923,-0.0056661538461539,-0.0083384615384614,8.179138775510204,-3.4426306122448977,-3.620538775510204,-0.0329551020408163,-0.0255438775510204,0.0260336734693877
0.482,8.6766,-4.374975384615385,3.055,-0.0807415384615385,-0.0056292307692308,-0.0084076923076921,8.179163265306121,-3.4426183673469386,-3.6205632653061226,-0.0329530612244898,-0.0255413265306122,0.0260352040816326
0.483,8.6766,-4.374753846153847,3.055,-0.0807153846153846,-0.0055923076923077,-0.0084769230769229,8.17918775510204,-3.4426061224489795,-3.620587755102041,-0.0329510204081632,-0.025538775510204,0.0260367346938775
0.484,8.6766,-4.374532307692308,3.055,-0.0806892307692308,-0.0055553846153846,-0.0085461538461537,8.17921224489796,-3.4425938775510203,-3.620612244897959,-0.0329489795918367,-0.0255362244897959,0.0260382653061224
0.485,8.6766,-4.37431076923077,3.055,-0.0806630769230769,-0.0055184615384616,-0.0086153846153844,8.179236734693877,-3.442581632653061,-3.6206367346938775,-0.0329469387755102,-0.0255336734693877,0.0260397959183673
0.486,8.6766,-4.374089230769231,3.055,-0.0806369230769231,-0.0054815384615385,-0.0086846153846152,8.179261224489796,-3.442569387755102,-3.620661224489796,-0.0329448979591836,-0.0255311224489796,0.0260413265306122
0.487,8.6766,-4.373867692307693,3.055,-0.0806107692307692,-0.0054446153846154,-0.008753846153846,8.179285714285713,-3.442557142857143,-3.6206857142857145,-0.0329428571428571,-0.0255285714285714,0.0260428571428571
0.488,8.6766,-4.373646153846154,3.055,-0.0805846153846154,-0.0054076923076923,-0.0088230769230768,8.179310204081633,-3.442544897959184,-3.620710204081633,-0.0329408163265306,-0.0255260204081632,0.026044387755102
0.489,8.6766,-4.373424615384616,3.055,-0.0805584615384615,-0.0053707692307692,-0.0088923076923075,8.17933469387755,-3.4425326530612246,-3.620734693877551,-0.032938775510204,-0.0255234693877551,0.0260459183673469
0.49,8.6766,-4.373203076923077,3.055,-0.0805323076923077,-0.0053338461538462,-0.0089615384615383,8.17935918367347,-3.442520408163265,-3.620759183673469,-0.0329367346938775,-0.0255209183673469,0.0260474489795918
0.491,8.6766,-4.372981538461539,3.055,-0.0805061538461539,-0.0052969230769231,-0.0090307692307691,8.179383673469387,-3.442508163265306,-3.620783673469388,-0.032934693877551,-0.0255183673469387,0.0260489795918367
0.492,8.6766,-4.37276,3.055,-0.08048,-0.00526,-0.0090999999999998,8.179408163265306,-3.4424959183673467,-3.620808163265306,-0.0329326530612245,-0.0255158163265306,0.0260505102040816
0.493,8.6766,-4.372538461538462,3.055,-0.0804538461538462,-0.0052230769230769,-0.0091692307692306,8.179432653061223,-3.442483673469388,-3.6208326530612247,-0.0329306122448979,-0.0255132653061224,0.0260520408163265
0.494,8.6766,-4.372316923076924,3.055,-0.0804276923076923,-0.0051861538461539,-0.0092384615384614,8.179457142857142,-3.4424714285714284,-3.620857142857143,-0.0329285714285714,-0.0255107142857142,0.0260535714285714
0.495,8.6766,-4.372095384615385,3.055,-0.0804015384615385,-0.0051492307692308,-0.0093076923076922,8.179481632653061,-3.4424591836734693,-3.620881632653061,-0.0329265306122449,-0.0255081632653061,0.0260551020408163
0.496,8.6766,-4.371873846153846,3.055,-0.0803753846153846,-0.0051123076923077,-0.0093769230769229,8.179506122448979,-3.44244693877551,-3.62090612244898,-0.0329244897959183,-0.0255056122448979,0.0260566326530612
0.497,8.6766,-4.371652307692308,3.055,-0.0803492307692308,-0.0050753846153846,-0.0094461538461537,8.179530612244898,-3.442434693877551,-3.620930612244898,-0.0329224489795918,-0.0255030612244898,0.0260581632653061
0.498,8.6766,-4.37143076923077,3.055,-0.0803230769230769,-0.0050384615384615,-0.0095153846153845,8.179555102040815,-3.442422448979592,-3.620955102040816,-0.0329204081632653,-0.0255005102040816,0.026059693877551
0.499,8.6766,-4.371209230769231,3.055,-0.0802969230769231,-0.0050015384615385,-0.0095846153846152,8.179579591836735,-3.4424102040816327,-3.620979591836735,-0.0329183673469387,-0.0254979591836734,0.0260612244897959
0.5,8.6766,-4.3709876923076925,3.055,-0.0802707692307692,-0.0049646153846154,-0.009653846153846,8.179604081632652,-3.442397959183673,-3.621004081632653,-0.0329163265306122,-0.0254954081632653,0.0260627551020408
0.501,8.6766,-4.370766153846154,3.055,-0.0802446153846154,-0.0049276923076923,-0.0097230769230768,8.179628571428571,-3.4423857142857144,-3.621028571428572,-0.0329142857142857,-0.0254928571428571,0.0260642857142857
0.502,8.6766,-4.370544615384616,3.055,-0.0802184615384615,-0.0048907692307692,-0.0097923076923076,8.179653061224489,-3.442373469387755,-3.6210530612244898,-0.0329122448979591,-0.0254903061224489,0.0260658163265306
0.503,8.6766,-4.370323076923078,3.055,-0.0801923076923077,-0.0048538461538461,-0.0098615384615383,8.179677551020408,-3.442361224489796,-3.621077551020408,-0.0329102040816326,-0.0254877551020408,0.0260673469387755
0.504,8.6766,-4.3701015384615385,3.055,-0.0801661538461538,-0.0048169230769231,-0.0099307692307691,8.179702040816325,-3.4423489795918365,-3.6211020408163264,-0.0329081632653061,-0.0254852040816326,0.0260688775510204
0.505,8.6766,-4.36988,3.055,-0.08014,-0.00478,-0.0099999999999999,8.179726530612244,-3.4423367346938774,-3.621126530612245,-0.0329061224489796,-0.0254826530612245,0.0260704081632653
0.506,8.6766,-4.369658461538462,3.055,-0.0801138461538461,-0.0047430769230769,-0.0100692307692306,8.179751020408164,-3.442324489795918,-3.6211510204081634,-0.032904081632653,-0.0254801020408163,0.0260719387755101
0.507,8.6766,-4.369436923076924,3.055,-0.0800876923076923,-0.0047061538461538,-0.0101384615384614,8.179775510204081,-3.442312244897959,-3.6211755102040817,-0.0329020408163265,-0.0254775510204081,0.026073469387755
0.508,8.6766,-4.3692153846153845,3.055,-0.0800615384615384,-0.0046692307692308,-0.0102076923076922,8.1798,-3.4423,-3.6212,-0.0329,-0.025475,0.0260749999999999
0.509,8.6766,-4.368993846153846,3.055,-0.0800353846153846,-0.0046323076923077,-0.010276923076923,8.179824489795918,-3.4422877551020408,-3.6212244897959183,-0.0328979591836734,-0.0254724489795918,0.0260765306122448
0.51,8.6766,-4.368772307692308,3.055,-0.0800092307692307,-0.0045953846153846,-0.0103461538461537,8.179848979591837,-3.4422755102040816,-3.621248979591837,-0.0328959183673469,-0.0254698979591836,0.0260780612244897
0.511,8.6766,-4.36855076923077,3.055,-0.0799830769230769,-0.0045584615384615,-0.0104153846153845,8.179873469387754,-3.4422632653061225,-3.6212734693877553,-0.0328938775510204,-0.0254673469387755,0.0260795918367346
0.512,8.6766,-4.368329230769231,3.055,-0.079956923076923,-0.0045215384615384,-0.0104846153846153,8.179897959183673,-3.4422510204081638,-3.6212979591836736,-0.0328918367346938,-0.0254647959183673,0.0260811224489795
0.513,8.6766,-4.368107692307692,3.055,-0.0799307692307692,-0.0044846153846154,-0.010553846153846,8.17992244897959,-3.442238775510204,-3.621322448979592,-0.0328897959183673,-0.0254622448979591,0.0260826530612244
0.514,8.6766,-4.367886153846154,3.055,-0.0799046153846154,-0.0044476923076923,-0.0106230769230768,8.17994693877551,-3.4422265306122446,-3.62134693877551,-0.0328877551020408,-0.025459693877551,0.0260841836734693
0.515,8.6766,-4.367664615384616,3.055,-0.0798784615384615,-0.0044107692307692,-0.0106923076923076,8.179971428571427,-3.442214285714285,-3.621371428571429,-0.0328857142857142,-0.0254571428571428,0.0260857142857142
0.516,8.6766,-4.367443076923077,3.055,-0.0798523076923077,-0.0043738461538461,-0.0107615384615384,8.179995918367347,-3.4422020408163263,-3.6213959183673463,-0.0328836734693877,-0.0254545918367347,0.0260872448979591
0.517,8.6766,-4.367221538461538,3.055,-0.0798261538461538,-0.0043369230769231,-0.0108307692307691,8.180020408163264,-3.442189795918367,-3.6214204081632655,-0.0328816326530612,-0.0254520408163265,0.026088775510204
0.518,8.6766,-4.367,3.055,-0.0798,-0.0043,-0.0108999999999999,8.180044897959183,-3.442177551020408,-3.621444897959184,-0.0328795918367347,-0.0254494897959183,0.0260903061224489
0.519,8.676889393939394,-4.3668545454545455,3.054927272727273,-0.0797742424242424,-0.0042636363636363,-0.0108742424242424,8.180069387755102,-3.442165306122449,-3.621469387755102,-0.0328775510204081,-0.0254469387755102,0.0260918367346938
0.52,8.677178787878788,-4.366709090909091,3.0548545454545457,-0.0797484848484848,-0.0042272727272727,-0.0108484848484848,8.18009387755102,-3.4421530612244897,-3.621493877551021,-0.0328755102040816,-0.025444387755102,0.0260933673469387
0.521,8.677468181818183,-4.366563636363637,3.0547818181818185,-0.0797227272727272,-0.0041909090909091,-0.0108227272727272,8.180118367346939,-3.4421408163265306,-3.621518367346938,-0.0328734693877551,-0.0254418367346938,0.0260948979591836
0.522,8.677757575757576,-4.366418181818182,3.0547090909090917,-0.0796969696969697,-0.0041545454545454,-0.0107969696969697,8.180142857142856,-3.4421285714285714,-3.621542857142857,-0.0328714285714285,-0.0254392857142857,0.0260964285714285
0.523,8.67804696969697,-4.366272727272728,3.054636363636364,-0.0796712121212121,-0.0041181818181818,-0.0107712121212121,8.180167346938775,-3.4421163265306123,-3.621567346938776,-0.032869387755102,-0.0254367346938775,0.0260979591836734
0.524,8.678336363636364,-4.366127272727273,3.0545636363636364,-0.0796454545454545,-0.0040818181818182,-0.0107454545454545,8.180191836734693,-3.442104081632653,-3.621591836734694,-0.0328673469387755,-0.0254341836734693,0.0260994897959183
0.525,8.678625757575757,-4.365981818181818,3.054490909090909,-0.0796196969696969,-0.0040454545454545,-0.0107196969696969,8.180216326530612,-3.442091836734694,-3.621616326530612,-0.0328653061224489,-0.0254316326530612,0.0261010204081632
0.526,8.678915151515152,-4.365836363636364,3.054418181818182,-0.0795939393939394,-0.0040090909090909,-0.0106939393939394,8.18024081632653,-3.4420795918367344,-3.6216408163265306,-0.0328632653061224,-0.025429081632653,0.0261025510204081
0.527,8.679204545454546,-4.365690909090909,3.0543454545454547,-0.0795681818181818,-0.0039727272727273,-0.0106681818181818,8.180265306122449,-3.4420673469387757,-3.621665306122449,-0.0328612244897959,-0.0254265306122449,0.026104081632653
0.528,8.67949393939394,-4.365545454545455,3.0542727272727275,-0.0795424242424242,-0.0039363636363636,-0.0106424242424242,8.180289795918366,-3.442055102040816,-3.621689795918367,-0.0328591836734693,-0.0254239795918367,0.0261056122448979
0.529,8.679783333333333,-4.3654,3.0542,-0.0795166666666667,-0.0039,-0.0106166666666666,8.180314285714285,-3.442042857142857,-3.621714285714286,-0.0328571428571428,-0.0254214285714285,0.0261071428571428
0.53,8.680072727272728,-4.365254545454546,3.054127272727273,-0.0794909090909091,-0.0038636363636364,-0.0105909090909091,8.180338775510204,-3.442030612244898,-3.621738775510204,-0.0328551020408163,-0.0254188775510204,0.0261086734693877
0.531,8.680362121212122,-4.365109090909091,3.054054545454546,-0.0794651515151515,-0.0038272727272727,-0.0105651515151515,8.180363265306122,-3.4420183673469387,-3.6217632653061225,-0.0328530612244898,-0.0254163265306122,0.0261102040816326
0.532,8.680651515151515,-4.364963636363637,3.053981818181818,-0.0794393939393939,-0.0037909090909091,-0.0105393939393939,8.180387755102041,-3.4420061224489795,-3.6217877551020408,-0.0328510204081632,-0.025413775510204,0.0261117346938775
0.533,8.680940909090909,-4.364818181818182,3.053909090909091,-0.0794136363636364,-0.0037545454545454,-0.0105136363636363,8.180412244897958,-3.4419938775510204,-3.621812244897959,-0.0328489795918367,-0.0254112244897959,0.0261132653061224
0.534,8.681230303030302,-4.364672727272728,3.053836363636364,-0.0793878787878788,-0.0037181818181818,-0.0104878787878788,8.180436734693878,-3.441981632653061,-3.621836734693877,-0.0328469387755102,-0.0254086734693877,0.0261147959183673
0.535,8.681519696969698,-4.364527272727273,3.0537636363636365,-0.0793621212121212,-0.0036818181818182,-0.0104621212121212,8.180461224489795,-3.441969387755102,-3.621861224489796,-0.0328448979591836,-0.0254061224489796,0.0261163265306122
0.536,8.681809090909091,-4.364381818181818,3.053690909090909,-0.0793363636363636,-0.0036454545454545,-0.0104363636363636,8.180485714285714,-3.441957142857143,-3.6218857142857135,-0.0328428571428571,-0.0254035714285714,0.0261178571428571
0.537,8.682098484848485,-4.364236363636364,3.053618181818182,-0.0793106060606061,-0.0036090909090909,-0.010410606060606,8.180510204081632,-3.441944897959184,-3.6219102040816327,-0.0328408163265306,-0.0254010204081632,0.026119387755102
