Time,ACCx_taR,ACCy_taR,ACCz_taR,GYRx_taR,GYRy_taR,GYRz_taR,ACCx_taL,ACCy_taL,ACCz_taL,GYRx_taL,GYRy_taL,GYRz_taL
0.0,9.0692,-4.6304,-1.0965,-0.0822,-0.0004,0.0024,8.4707,-1.3455,-4.2329,-0.0252,-0.0264,0.0233
0.001,9.069272727272727,-4.630181818181818,-1.0965,-0.0821984848484848,-0.0004015151515151,0.0023984848484848,8.47070004171501,-1.3455,-4.232899979577027,-0.0251999973928119,-0.0264000021726566,0.0233000021726566
0.002,9.069345454545456,-4.6299636363636365,-1.0965,-0.0821969696969697,-0.0004030303030303,0.0023969696969696,8.470700083430017,-1.3455,-4.232899959154055,-0.0251999947856239,-0.0264000043453133,0.0233000043453133
0.003,9.069418181818182,-4.629745454545454,-1.0965,-0.0821954545454545,-0.0004045454545454,0.0023954545454545,8.470700125145026,-1.3455,-4.232899938731081,-0.0251999921784359,-0.02640000651797,0.02330000651797
0.004,9.06949090909091,-4.629527272727272,-1.0965,-0.0821939393939393,-0.0004060606060606,0.0023939393939393,8.470700166860034,-1.3455,-4.232899918308108,-0.0251999895712479,-0.0264000086906267,0.0233000086906267
0.005,9.069563636363636,-4.629309090909091,-1.0965,-0.0821924242424242,-0.0004075757575757,0.0023924242424242,8.470700208575042,-1.3455,-4.232899897885136,-0.0251999869640599,-0.0264000108632834,0.0233000108632834
0.006,9.069636363636365,-4.629090909090909,-1.0965,-0.082190909090909,-0.0004090909090909,0.002390909090909,8.47070025029005,-1.3455,-4.232899877462163,-0.0251999843568718,-0.02640001303594,0.02330001303594
0.007,9.069709090909091,-4.628872727272727,-1.0965,-0.0821893939393939,-0.000410606060606,0.0023893939393939,8.47070029200506,-1.3455,-4.232899857039191,-0.0251999817496838,-0.0264000152085967,0.0233000152085967
0.008,9.069781818181818,-4.628654545454546,-1.0965,-0.0821878787878787,-0.0004121212121212,0.0023878787878787,8.470700333720067,-1.3455,-4.232899836616218,-0.0251999791424958,-0.0264000173812534,0.0233000173812534
0.009,9.069854545454543,-4.628436363636364,-1.0965,-0.0821863636363636,-0.0004136363636363,0.0023863636363636,8.470700375435076,-1.3455,-4.232899816193244,-0.0251999765353078,-0.0264000195539101,0.0233000195539101
0.01,9.069927272727274,-4.628218181818181,-1.0965,-0.0821848484848484,-0.0004151515151515,0.0023848484848484,8.470700417150084,-1.3455,-4.232899795770272,-0.0251999739281198,-0.0264000217265668,0.0233000217265668
0.011,9.07,-4.627999999999999,-1.0965,-0.0821833333333333,-0.0004166666666666,0.0023833333333333,8.470700458865092,-1.3455,-4.232899775347299,-0.0251999713209318,-0.0264000238992234,0.0233000238992234
0.012,9.070072727272729,-4.627781818181818,-1.0965,-0.0821818181818181,-0.0004181818181818,0.0023818181818181,8.4707005005801,-1.3455,-4.232899754924326,-0.0251999687137437,-0.0264000260718801,0.0233000260718801
0.013,9.070145454545456,-4.627563636363636,-1.0965,-0.082180303030303,-0.0004196969696969,0.002380303030303,8.47070054229511,-1.3455,-4.232899734501354,-0.0251999661065557,-0.0264000282445368,0.0233000282445368
0.014,9.070218181818182,-4.627345454545454,-1.0965,-0.0821787878787878,-0.0004212121212121,0.0023787878787878,8.470700584010117,-1.3455,-4.232899714078381,-0.0251999634993677,-0.0264000304171935,0.0233000304171935
0.015,9.07029090909091,-4.6271272727272725,-1.0965,-0.0821772727272727,-0.0004227272727272,0.0023772727272727,8.470700625725126,-1.3455,-4.232899693655408,-0.0251999608921797,-0.0264000325898502,0.0233000325898502
0.016,9.070363636363636,-4.62690909090909,-1.0965,-0.0821757575757575,-0.0004242424242424,0.0023757575757575,8.470700667440132,-1.3455,-4.232899673232435,-0.0251999582849917,-0.0264000347625068,0.0233000347625069
0.017,9.070436363636365,-4.626690909090908,-1.0965,-0.0821742424242424,-0.0004257575757575,0.0023742424242424,8.47070070915514,-1.3455,-4.232899652809462,-0.0251999556778037,-0.0264000369351635,0.0233000369351635
0.018,9.070509090909091,-4.626472727272727,-1.0965,-0.0821727272727272,-0.0004272727272727,0.0023727272727272,8.470700750870149,-1.3455,-4.23289963238649,-0.0251999530706156,-0.0264000391078202,0.0233000391078202
0.019,9.070581818181818,-4.626254545454545,-1.0965,-0.0821712121212121,-0.0004287878787878,0.0023712121212121,8.470700792585157,-1.3455,-4.232899611963517,-0.0251999504634276,-0.0264000412804769,0.0233000412804769
0.02,9.070654545454548,-4.626036363636363,-1.0965,-0.0821696969696969,-0.000430303030303,0.0023696969696969,8.470700834300166,-1.3455,-4.232899591540543,-0.0251999478562396,-0.0264000434531336,0.0233000434531336
0.021,9.070727272727272,-4.625818181818182,-1.0965,-0.0821681818181818,-0.0004318181818181,0.0023681818181818,8.470700876015174,-1.3455,-4.232899571117571,-0.0251999452490516,-0.0264000456257903,0.0233000456257903
0.022,9.0708,-4.6256,-1.0965,-0.0821666666666666,-0.0004333333333333,0.0023666666666666,8.470700917730182,-1.3455,-4.232899550694598,-0.0251999426418636,-0.0264000477984469,0.0233000477984469
0.023,9.070872727272729,-4.625381818181817,-1.0965,-0.0821651515151515,-0.0004348484848484,0.0023651515151515,8.47070095944519,-1.3455,-4.2328995302716255,-0.0251999400346756,-0.0264000499711036,0.0233000499711036
0.024,9.070945454545456,-4.625163636363636,-1.0965,-0.0821636363636363,-0.0004363636363636,0.0023636363636363,8.470701001160199,-1.3455,-4.232899509848653,-0.0251999374274875,-0.0264000521437603,0.0233000521437603
0.025,9.071018181818182,-4.624945454545454,-1.0965,-0.0821621212121212,-0.0004378787878787,0.0023621212121212,8.470701042875207,-1.3455,-4.23289948942568,-0.0251999348202995,-0.026400054316417,0.023300054316417
0.026,9.071090909090907,-4.624727272727272,-1.0965,-0.082160606060606,-0.0004393939393939,0.002360606060606,8.470701084590216,-1.3455,-4.232899469002707,-0.0251999322131115,-0.0264000564890737,0.0233000564890737
0.027,9.071163636363636,-4.624509090909091,-1.0965,-0.0821590909090909,-0.000440909090909,0.0023590909090909,8.470701126305224,-1.3455,-4.232899448579734,-0.0251999296059235,-0.0264000586617303,0.0233000586617303
0.028,9.071236363636364,-4.624290909090909,-1.0965,-0.0821575757575757,-0.0004424242424242,0.0023575757575757,8.470701168020232,-1.3455,-4.232899428156761,-0.0251999269987355,-0.026400060834387,0.023300060834387
0.029,9.071309090909091,-4.6240727272727264,-1.0965,-0.0821560606060606,-0.0004439393939393,0.0023560606060606,8.47070120973524,-1.3455,-4.232899407733789,-0.0251999243915474,-0.0264000630070437,0.0233000630070437
0.03,9.071381818181818,-4.623854545454544,-1.0965,-0.0821545454545454,-0.0004454545454545,0.0023545454545454,8.470701251450249,-1.3455,-4.232899387310816,-0.0251999217843594,-0.0264000651797004,0.0233000651797004
0.031,9.071454545454548,-4.623636363636363,-1.0965,-0.0821530303030303,-0.0004469696969697,0.0023530303030302,8.470701293165257,-1.3455,-4.232899366887843,-0.0251999191771714,-0.0264000673523571,0.0233000673523571
0.032,9.071527272727272,-4.623418181818181,-1.0965,-0.0821515151515151,-0.0004484848484848,0.0023515151515151,8.470701334880266,-1.3455,-4.23289934646487,-0.0251999165699834,-0.0264000695250137,0.0233000695250137
0.033,9.0716,-4.623199999999999,-1.0965,-0.08215,-0.00045,0.0023499999999999,8.470701376595274,-1.3455,-4.232899326041897,-0.0251999139627954,-0.0264000716976704,0.0233000716976704
0.034,9.071672727272729,-4.622981818181818,-1.0965,-0.0821484848484848,-0.0004515151515151,0.0023484848484848,8.470701418310282,-1.3455,-4.232899305618925,-0.0251999113556074,-0.0264000738703271,0.0233000738703271
0.035,9.071745454545455,-4.622763636363636,-1.0965,-0.0821469696969696,-0.0004530303030303,0.0023469696969696,8.47070146002529,-1.3455,-4.232899285195952,-0.0251999087484193,-0.0264000760429838,0.0233000760429838
0.036,9.071818181818182,-4.622545454545453,-1.0965,-0.0821454545454545,-0.0004545454545454,0.0023454545454545,8.4707015017403,-1.3455,-4.232899264772979,-0.0251999061412313,-0.0264000782156405,0.0233000782156405
0.037,9.071890909090907,-4.622327272727272,-1.0965,-0.0821439393939394,-0.0004560606060606,0.0023439393939393,8.470701543455307,-1.3455,-4.232899244350006,-0.0251999035340433,-0.0264000803882972,0.0233000803882972
0.038,9.071963636363636,-4.62210909090909,-1.0965,-0.0821424242424242,-0.0004575757575757,0.0023424242424242,8.470701585170316,-1.3455,-4.232899223927033,-0.0251999009268553,-0.0264000825609538,0.0233000825609538
0.039,9.072036363636364,-4.621890909090908,-1.0965,-0.082140909090909,-0.0004590909090909,0.002340909090909,8.470701626885324,-1.3455,-4.2328992035040605,-0.0251998983196673,-0.0264000847336105,0.0233000847336105
0.04,9.072109090909091,-4.621672727272727,-1.0965,-0.0821393939393939,-0.000460606060606,0.0023393939393939,8.470701668600332,-1.3455,-4.232899183081088,-0.0251998957124793,-0.0264000869062672,0.0233000869062672
0.041,9.072181818181818,-4.621454545454545,-1.0965,-0.0821378787878787,-0.0004621212121212,0.0023378787878787,8.47070171031534,-1.3455,-4.232899162658115,-0.0251998931052912,-0.0264000890789239,0.0233000890789239
0.042,9.072254545454546,-4.6212363636363625,-1.0965,-0.0821363636363636,-0.0004636363636363,0.0023363636363636,8.47070175203035,-1.3455,-4.232899142235143,-0.0251998904981032,-0.0264000912515806,0.0233000912515806
0.043,9.072327272727271,-4.621018181818181,-1.0965,-0.0821348484848484,-0.0004651515151515,0.0023348484848484,8.470701793745357,-1.3455,-4.232899121812169,-0.0251998878909152,-0.0264000934242372,0.0233000934242372
0.044,9.0724,-4.620799999999999,-1.0965,-0.0821333333333333,-0.0004666666666666,0.0023333333333333,8.470701835460366,-1.3455,-4.232899101389196,-0.0251998852837272,-0.0264000955968939,0.0233000955968939
0.045,9.072472727272729,-4.620581818181817,-1.0965,-0.0821318181818181,-0.0004681818181818,0.0023318181818181,8.470701877175374,-1.3455,-4.232899080966224,-0.0251998826765392,-0.0264000977695506,0.0233000977695506
0.046,9.072545454545455,-4.620363636363636,-1.0965,-0.082130303030303,-0.0004696969696969,0.002330303030303,8.47070191889038,-1.3455,-4.232899060543251,-0.0251998800693512,-0.0264000999422073,0.0233000999422073
0.047,9.072618181818182,-4.620145454545454,-1.0965,-0.0821287878787878,-0.0004712121212121,0.0023287878787878,8.470701960605389,-1.3455,-4.232899040120278,-0.0251998774621631,-0.026400102114864,0.023300102114864
0.048,9.072690909090907,-4.619927272727272,-1.0965,-0.0821272727272727,-0.0004727272727272,0.0023272727272727,8.470702002320397,-1.3455,-4.232899019697306,-0.0251998748549751,-0.0264001042875206,0.0233001042875206
0.049,9.072763636363636,-4.619709090909089,-1.0965,-0.0821257575757575,-0.0004742424242424,0.0023257575757575,8.470702044035406,-1.3455,-4.232898999274332,-0.0251998722477871,-0.0264001064601773,0.0233001064601773
0.05,9.072836363636364,-4.619490909090908,-1.0965,-0.0821242424242424,-0.0004757575757575,0.0023242424242424,8.470702085750414,-1.3455,-4.23289897885136,-0.0251998696405991,-0.026400108632834,0.023300108632834
0.051,9.072909090909093,-4.619272727272726,-1.0965,-0.0821227272727272,-0.0004772727272727,0.0023227272727272,8.470702127465422,-1.3455,-4.232898958428387,-0.0251998670334111,-0.0264001108054907,0.0233001108054907
0.052,9.072981818181818,-4.619054545454544,-1.0965,-0.0821212121212121,-0.0004787878787878,0.0023212121212121,8.47070216918043,-1.3455,-4.232898938005414,-0.025199864426223,-0.0264001129781474,0.0233001129781474
0.053,9.073054545454546,-4.618836363636363,-1.0965,-0.0821196969696969,-0.000480303030303,0.0023196969696969,8.470702210895439,-1.3455,-4.232898917582442,-0.025199861819035,-0.0264001151508041,0.0233001151508041
0.054,9.073127272727271,-4.618618181818181,-1.0965,-0.0821181818181818,-0.0004818181818181,0.0023181818181818,8.470702252610447,-1.3455,-4.232898897159468,-0.025199859211847,-0.0264001173234607,0.0233001173234607
0.055,9.0732,-4.618399999999999,-1.0965,-0.0821166666666666,-0.0004833333333333,0.0023166666666666,8.470702294325456,-1.3455,-4.232898876736496,-0.025199856604659,-0.0264001194961174,0.0233001194961174
0.056,9.073272727272728,-4.618181818181817,-1.0965,-0.0821151515151515,-0.0004848484848484,0.0023151515151515,8.470702336040464,-1.3455,-4.232898856313523,-0.025199853997471,-0.0264001216687741,0.0233001216687741
0.057,9.073345454545455,-4.617963636363635,-1.0965,-0.0821136363636363,-0.0004863636363636,0.0023136363636363,8.470702377755472,-1.3455,-4.23289883589055,-0.025199851390283,-0.0264001238414308,0.0233001238414308
0.058,9.073418181818182,-4.617745454545453,-1.0965,-0.0821121212121212,-0.0004878787878787,0.0023121212121212,8.47070241947048,-1.3455,-4.2328988154675775,-0.0251998487830949,-0.0264001260140875,0.0233001260140875
0.059,9.073490909090909,-4.617527272727272,-1.0965,-0.082110606060606,-0.0004893939393939,0.002310606060606,8.470702461185489,-1.3455,-4.232898795044605,-0.0251998461759069,-0.0264001281867441,0.0233001281867441
0.06,9.073563636363636,-4.61730909090909,-1.0965,-0.0821090909090909,-0.000490909090909,0.0023090909090909,8.470702502900497,-1.3455,-4.232898774621631,-0.0251998435687189,-0.0264001303594008,0.0233001303594008
0.061,9.073636363636364,-4.617090909090908,-1.0965,-0.0821075757575757,-0.0004924242424242,0.0023075757575757,8.470702544615506,-1.3455,-4.232898754198659,-0.0251998409615309,-0.0264001325320575,0.0233001325320575
0.062,9.073709090909093,-4.616872727272726,-1.0965,-0.0821060606060606,-0.0004939393939394,0.0023060606060605,8.470702586330514,-1.3455,-4.232898733775686,-0.0251998383543429,-0.0264001347047142,0.0233001347047142
0.063,9.073781818181818,-4.616654545454544,-1.0965,-0.0821045454545454,-0.0004954545454545,0.0023045454545454,8.470702628045522,-1.3455,-4.232898713352713,-0.0251998357471549,-0.0264001368773709,0.0233001368773709
0.064,9.073854545454546,-4.616436363636362,-1.0965,-0.0821030303030303,-0.0004969696969697,0.0023030303030302,8.47070266976053,-1.3455,-4.232898692929741,-0.0251998331399668,-0.0264001390500275,0.0233001390500275
0.065,9.073927272727271,-4.616218181818181,-1.0965,-0.0821015151515151,-0.0004984848484848,0.0023015151515151,8.470702711475539,-1.3455,-4.232898672506768,-0.0251998305327788,-0.0264001412226842,0.0233001412226842
0.066,9.074,-4.6160000000000005,-1.0964999999999996,-0.0821,-0.0005,0.0023,8.470702753190547,-1.3455,-4.232898652083795,-0.0251998279255908,-0.0264001433953409,0.0233001433953409
0.067,9.074073846153846,-4.616221538461539,-1.096427692307692,-0.0821015384615384,-0.0005153846153846,0.0023061538461538,8.470702794905556,-1.3455,-4.232898631660822,-0.0251998253184028,-0.0264001455679976,0.0233001455679976
0.068,9.074147692307692,-4.616443076923078,-1.0963553846153844,-0.0821030769230769,-0.0005307692307692,0.0023123076923077,8.470702836620564,-1.3455,-4.232898611237849,-0.0251998227112148,-0.0264001477406543,0.0233001477406543
0.069,9.074221538461538,-4.616664615384616,-1.0962830769230767,-0.0821046153846154,-0.0005461538461539,0.0023184615384615,8.470702878335572,-1.3455,-4.232898590814877,-0.0251998201040268,-0.0264001499133109,0.023300149913311
0.07,9.074295384615384,-4.6168861538461545,-1.096210769230769,-0.0821061538461538,-0.0005615384615385,0.0023246153846154,8.47070292005058,-1.3455,-4.232898570391904,-0.0251998174968387,-0.0264001520859676,0.0233001520859676
0.071,9.07436923076923,-4.617107692307693,-1.0961384615384613,-0.0821076923076923,-0.0005769230769231,0.0023307692307692,8.47070296176559,-1.3455,-4.232898549968931,-0.0251998148896507,-0.0264001542586243,0.0233001542586243
0.072,9.074443076923076,-4.617329230769231,-1.0960661538461536,-0.0821092307692307,-0.0005923076923077,0.0023369230769231,8.470703003480597,-1.3455,-4.232898529545958,-0.0251998122824627,-0.026400156431281,0.023300156431281
0.073,9.074516923076922,-4.61755076923077,-1.095993846153846,-0.0821107692307692,-0.0006076923076923,0.0023430769230769,8.470703045195606,-1.3455,-4.232898509122985,-0.0251998096752747,-0.0264001586039377,0.0233001586039377
0.074,9.074590769230769,-4.6177723076923085,-1.0959215384615382,-0.0821123076923077,-0.0006230769230769,0.0023492307692307,8.470703086910614,-1.3455,-4.2328984887000125,-0.0251998070680867,-0.0264001607765944,0.0233001607765944
0.075,9.074664615384616,-4.617993846153847,-1.0958492307692305,-0.0821138461538461,-0.0006384615384615,0.0023553846153846,8.470703128625622,-1.3455,-4.23289846827704,-0.0251998044608986,-0.026400162949251,0.023300162949251
0.076,9.07473846153846,-4.618215384615385,-1.0957769230769228,-0.0821153846153846,-0.0006538461538462,0.0023615384615384,8.470703170340629,-1.3455,-4.232898447854067,-0.0251998018537106,-0.0264001651219077,0.0233001651219077
0.077,9.074812307692309,-4.618436923076923,-1.095704615384615,-0.082116923076923,-0.0006692307692308,0.0023676923076923,8.470703212055637,-1.3455,-4.232898427431094,-0.0251997992465226,-0.0264001672945644,0.0233001672945644
0.078,9.074886153846156,-4.618658461538463,-1.0956323076923076,-0.0821184615384615,-0.0006846153846154,0.0023738461538461,8.470703253770646,-1.3455,-4.232898407008121,-0.0251997966393346,-0.0264001694672211,0.0233001694672211
0.079,9.07496,-4.618880000000001,-1.09556,-0.08212,-0.0007,0.00238,8.470703295485654,-1.3455,-4.232898386585148,-0.0251997940321466,-0.0264001716398778,0.0233001716398778
0.08,9.075033846153849,-4.619101538461539,-1.0954876923076922,-0.0821215384615384,-0.0007153846153846,0.0023861538461538,8.470703337200662,-1.3455,-4.232898366162176,-0.0251997914249586,-0.0264001738125344,0.0233001738125344
0.081,9.075107692307691,-4.619323076923077,-1.0954153846153845,-0.0821230769230769,-0.0007307692307692,0.0023923076923077,8.47070337891567,-1.3455,-4.232898345739203,-0.0251997888177705,-0.0264001759851911,0.0233001759851911
0.082,9.07518153846154,-4.619544615384616,-1.0953430769230768,-0.0821246153846154,-0.0007461538461538,0.0023984615384615,8.470703420630679,-1.3455,-4.2328983253162304,-0.0251997862105825,-0.0264001781578478,0.0233001781578478
0.083,9.075255384615383,-4.619766153846154,-1.095270769230769,-0.0821261538461538,-0.0007615384615385,0.0024046153846154,8.470703462345687,-1.3455,-4.232898304893257,-0.0251997836033945,-0.0264001803305045,0.0233001803305045
0.084,9.075329230769231,-4.619987692307693,-1.0951984615384611,-0.0821276923076923,-0.0007769230769231,0.0024107692307692,8.470703504060696,-1.3455,-4.232898284470284,-0.0251997809962065,-0.0264001825031612,0.0233001825031612
0.085,9.075403076923076,-4.620209230769231,-1.0951261538461536,-0.0821292307692307,-0.0007923076923077,0.002416923076923,8.470703545775704,-1.3455,-4.232898264047312,-0.0251997783890185,-0.0264001846758178,0.0233001846758178
0.086,9.075476923076923,-4.62043076923077,-1.095053846153846,-0.0821307692307692,-0.0008076923076923,0.0024230769230769,8.470703587490712,-1.3455,-4.232898243624339,-0.0251997757818305,-0.0264001868484745,0.0233001868484745
0.087,9.07555076923077,-4.620652307692308,-1.0949815384615382,-0.0821323076923077,-0.0008230769230769,0.0024292307692307,8.47070362920572,-1.3455,-4.232898223201366,-0.0251997731746424,-0.0264001890211312,0.0233001890211312
0.088,9.075624615384616,-4.620873846153846,-1.0949092307692303,-0.0821338461538461,-0.0008384615384615,0.0024353846153846,8.470703670920729,-1.3455,-4.232898202778394,-0.0251997705674544,-0.0264001911937879,0.0233001911937879
0.089,9.075698461538462,-4.621095384615385,-1.0948369230769228,-0.0821353846153846,-0.0008538461538461,0.0024415384615384,8.470703712635737,-1.3455,-4.23289818235542,-0.0251997679602664,-0.0264001933664446,0.0233001933664446
0.09,9.075772307692308,-4.621316923076924,-1.0947646153846151,-0.082136923076923,-0.0008692307692308,0.0024476923076923,8.470703754350746,-1.3455,-4.232898161932448,-0.0251997653530784,-0.0264001955391013,0.0233001955391013
0.091,9.075846153846154,-4.621538461538462,-1.0946923076923076,-0.0821384615384615,-0.0008846153846154,0.0024538461538461,8.470703796065754,-1.3455,-4.232898141509475,-0.0251997627458904,-0.0264001977117579,0.0233001977117579
0.092,9.07592,-4.62176,-1.09462,-0.08214,-0.0009,0.00246,8.470703837780762,-1.3455,-4.232898121086502,-0.0251997601387024,-0.0264001998844146,0.0233001998844146
0.093,9.075993846153846,-4.621981538461538,-1.0945476923076922,-0.0821415384615384,-0.0009153846153846,0.0024661538461538,8.47070387949577,-1.3455,-4.23289810066353,-0.0251997575315143,-0.0264002020570713,0.0233002020570713
0.094,9.076067692307692,-4.6222030769230775,-1.0944753846153843,-0.0821430769230769,-0.0009307692307692,0.0024723076923077,8.470703921210779,-1.3455,-4.232898080240556,-0.0251997549243263,-0.026400204229728,0.023300204229728
0.095,9.076141538461538,-4.622424615384616,-1.0944030769230768,-0.0821446153846153,-0.0009461538461538,0.0024784615384615,8.470703962925787,-1.3455,-4.232898059817583,-0.0251997523171383,-0.0264002064023847,0.0233002064023847
0.096,9.076215384615384,-4.622646153846154,-1.094330769230769,-0.0821461538461538,-0.0009615384615384,0.0024846153846153,8.470704004640796,-1.3455,-4.232898039394611,-0.0251997497099503,-0.0264002085750413,0.0233002085750413
0.097,9.07628923076923,-4.622867692307692,-1.0942584615384614,-0.0821476923076923,-0.0009769230769231,0.0024907692307692,8.470704046355804,-1.3455,-4.232898018971638,-0.0251997471027623,-0.026400210747698,0.023300210747698
0.098,9.076363076923077,-4.623089230769231,-1.0941861538461537,-0.0821492307692307,-0.0009923076923077,0.002496923076923,8.470704088070812,-1.3455,-4.232897998548665,-0.0251997444955743,-0.0264002129203547,0.0233002129203547
0.099,9.076436923076924,-4.62331076923077,-1.094113846153846,-0.0821507692307692,-0.0010076923076923,0.0025030769230769,8.47070412978582,-1.3455,-4.232897978125693,-0.0251997418883862,-0.0264002150930114,0.0233002150930114
0.1,9.076510769230769,-4.623532307692308,-1.0940415384615385,-0.0821523076923076,-0.0010230769230769,0.0025092307692307,8.470704171500829,-1.3455,-4.232897957702719,-0.0251997392811982,-0.0264002172656681,0.0233002172656681
0.101,9.076584615384617,-4.623753846153846,-1.0939692307692308,-0.0821538461538461,-0.0010384615384615,0.0025153846153846,8.470704213215837,-1.3455,-4.232897937279747,-0.0251997366740102,-0.0264002194383247,0.0233002194383247
0.102,9.07665846153846,-4.623975384615385,-1.093896923076923,-0.0821553846153846,-0.0010538461538461,0.0025215384615384,8.470704254930846,-1.3455,-4.232897916856774,-0.0251997340668222,-0.0264002216109814,0.0233002216109814
0.103,9.076732307692309,-4.624196923076923,-1.0938246153846154,-0.082156923076923,-0.0010692307692307,0.0025276923076923,8.470704296645854,-1.3455,-4.232897896433801,-0.0251997314596342,-0.0264002237836381,0.0233002237836381
0.104,9.076806153846151,-4.624418461538462,-1.0937523076923077,-0.0821584615384615,-0.0010846153846154,0.0025338461538461,8.470704338360862,-1.3455,-4.232897876010829,-0.0251997288524461,-0.0264002259562948,0.0233002259562948
0.105,9.07688,-4.62464,-1.09368,-0.08216,-0.0011,0.00254,8.47070438007587,-1.3455,-4.232897855587856,-0.0251997262452581,-0.0264002281289515,0.0233002281289515
0.106,9.076953846153843,-4.624861538461539,-1.0936076923076925,-0.0821615384615384,-0.0011153846153846,0.0025461538461538,8.470704421790877,-1.3455,-4.2328978351648825,-0.0251997236380701,-0.0264002303016082,0.0233002303016082
0.107,9.077027692307691,-4.625083076923077,-1.0935353846153846,-0.0821630769230769,-0.0011307692307692,0.0025523076923077,8.470704463505886,-1.3455,-4.23289781474191,-0.0251997210308821,-0.0264002324742648,0.0233002324742648
0.108,9.077101538461536,-4.625304615384615,-1.0934630769230769,-0.0821646153846153,-0.0011461538461538,0.0025584615384615,8.470704505220894,-1.3455,-4.232897794318937,-0.0251997184236941,-0.0264002346469215,0.0233002346469215
0.109,9.077175384615384,-4.625526153846154,-1.0933907692307692,-0.0821661538461538,-0.0011615384615384,0.0025646153846153,8.470704546935902,-1.3455,-4.2328977738959646,-0.0251997158165061,-0.0264002368195782,0.0233002368195782
0.11,9.07724923076923,-4.625747692307693,-1.0933184615384617,-0.0821676923076923,-0.001176923076923,0.0025707692307692,8.47070458865091,-1.3455,-4.232897753472992,-0.025199713209318,-0.0264002389922349,0.0233002389922349
0.111,9.077323076923076,-4.625969230769231,-1.0932461538461538,-0.0821692307692307,-0.0011923076923077,0.002576923076923,8.470704630365919,-1.3455,-4.232897733050018,-0.02519971060213,-0.0264002411648916,0.0233002411648916
0.112,9.077396923076922,-4.626190769230769,-1.093173846153846,-0.0821707692307692,-0.0012076923076923,0.0025830769230769,8.470704672080927,-1.3455,-4.232897712627046,-0.025199707994942,-0.0264002433375482,0.0233002433375482
0.113,9.077470769230768,-4.626412307692307,-1.0931015384615386,-0.0821723076923077,-0.0012230769230769,0.0025892307692307,8.470704713795936,-1.3455,-4.232897692204073,-0.025199705387754,-0.0264002455102049,0.0233002455102049
0.114,9.077544615384616,-4.626633846153847,-1.0930292307692309,-0.0821738461538461,-0.0012384615384615,0.0025953846153846,8.470704755510944,-1.3455,-4.2328976717811,-0.025199702780566,-0.0264002476828616,0.0233002476828616
0.115,9.077618461538462,-4.626855384615385,-1.0929569230769232,-0.0821753846153846,-0.0012538461538461,0.0026015384615384,8.470704797225952,-1.3455,-4.232897651358128,-0.025199700173378,-0.0264002498555183,0.0233002498555183
0.116,9.077692307692308,-4.627076923076923,-1.0928846153846157,-0.082176923076923,-0.0012692307692307,0.0026076923076923,8.47070483894096,-1.3455,-4.232897630935155,-0.0251996975661899,-0.026400252028175,0.023300252028175
0.117,9.077766153846154,-4.627298461538461,-1.0928123076923075,-0.0821784615384615,-0.0012846153846153,0.0026138461538461,8.470704880655969,-1.3455,-4.232897610512182,-0.0251996949590019,-0.0264002542008316,0.0233002542008316
0.118,9.07784,-4.62752,-1.09274,-0.08218,-0.0013,0.00262,8.470704922370977,-1.3455,-4.232897590089209,-0.0251996923518139,-0.0264002563734883,0.0233002563734883
0.119,9.077913846153846,-4.627741538461539,-1.0926676923076923,-0.0821815384615384,-0.0013153846153846,0.0026261538461538,8.470704964085986,-1.3455,-4.232897569666236,-0.0251996897446259,-0.026400258546145,0.023300258546145
0.12,9.077987692307692,-4.627963076923077,-1.0925953846153846,-0.0821830769230769,-0.0013307692307692,0.0026323076923076,8.470705005800994,-1.3455,-4.232897549243264,-0.0251996871374379,-0.0264002607188017,0.0233002607188017
0.121,9.078061538461538,-4.628184615384615,-1.092523076923077,-0.0821846153846153,-0.0013461538461538,0.0026384615384615,8.470705047516002,-1.3455,-4.232897528820291,-0.0251996845302499,-0.0264002628914584,0.0233002628914584
0.122,9.078135384615384,-4.628406153846154,-1.0924507692307692,-0.0821861538461538,-0.0013615384615384,0.0026446153846153,8.47070508923101,-1.3455,-4.232897508397318,-0.0251996819230618,-0.026400265064115,0.0233002650641151
0.123,9.07820923076923,-4.628627692307692,-1.0923784615384615,-0.0821876923076923,-0.001376923076923,0.0026507692307692,8.470705130946019,-1.3455,-4.232897487974345,-0.0251996793158738,-0.0264002672367717,0.0233002672367717
0.124,9.078283076923077,-4.628849230769231,-1.0923061538461538,-0.0821892307692307,-0.0013923076923076,0.002656923076923,8.470705172661027,-1.3455,-4.232897467551372,-0.0251996767086858,-0.0264002694094284,0.0233002694094284
0.125,9.078356923076925,-4.629070769230769,-1.0922338461538463,-0.0821907692307692,-0.0014076923076923,0.0026630769230769,8.470705214376036,-1.3455,-4.2328974471284,-0.0251996741014978,-0.0264002715820851,0.0233002715820851
0.126,9.078430769230769,-4.629292307692308,-1.0921615384615386,-0.0821923076923076,-0.0014230769230769,0.0026692307692307,8.470705256091044,-1.3455,-4.232897426705427,-0.0251996714943098,-0.0264002737547418,0.0233002737547418
0.127,9.078504615384617,-4.629513846153846,-1.092089230769231,-0.0821938461538461,-0.0014384615384615,0.0026753846153846,8.470705297806052,-1.3455,-4.232897406282454,-0.0251996688871217,-0.0264002759273985,0.0233002759273985
0.128,9.07857846153846,-4.629735384615384,-1.0920169230769232,-0.0821953846153846,-0.0014538461538461,0.0026815384615384,8.47070533952106,-1.3455,-4.232897385859481,-0.0251996662799337,-0.0264002781000551,0.0233002781000551
0.129,9.078652307692307,-4.629956923076923,-1.0919446153846155,-0.082196923076923,-0.0014692307692307,0.0026876923076923,8.470705381236069,-1.3455,-4.232897365436508,-0.0251996636727457,-0.0264002802727118,0.0233002802727118
0.13,9.078726153846151,-4.630178461538462,-1.0918723076923078,-0.0821984615384615,-0.0014846153846153,0.0026938461538461,8.470705422951077,-1.3455,-4.232897345013535,-0.0251996610655577,-0.0264002824453685,0.0233002824453685
0.131,9.0788,-4.6304,-1.0918,-0.0822,-0.0014999999999999,0.0026999999999999,8.470705464666086,-1.3455,-4.232897324590563,-0.0251996584583697,-0.0264002846180252,0.0233002846180252
0.132,9.078726153846151,-4.630473846153846,-1.0918723076923078,-0.0821953846153846,-0.0014938461538461,0.0027030769230769,8.470705506381094,-1.3455,-4.23289730416759,-0.0251996558511817,-0.0264002867906819,0.0233002867906819
0.133,9.078652307692307,-4.630547692307692,-1.0919446153846155,-0.0821907692307692,-0.0014876923076923,0.0027061538461538,8.470705548096102,-1.3455,-4.2328972837446175,-0.0251996532439936,-0.0264002889633385,0.0233002889633385
0.134,9.07857846153846,-4.630621538461538,-1.0920169230769232,-0.0821861538461538,-0.0014815384615384,0.0027092307692307,8.47070558981111,-1.3455,-4.232897263321644,-0.0251996506368056,-0.0264002911359952,0.0233002911359952
0.135,9.078504615384617,-4.630695384615384,-1.092089230769231,-0.0821815384615384,-0.0014753846153846,0.0027123076923076,8.470705631526119,-1.3455,-4.232897242898671,-0.0251996480296176,-0.0264002933086519,0.0233002933086519
0.136,9.078430769230769,-4.63076923076923,-1.0921615384615386,-0.082176923076923,-0.0014692307692307,0.0027153846153846,8.470705673241127,-1.3455,-4.232897222475699,-0.0251996454224296,-0.0264002954813086,0.0233002954813086
0.137,9.078356923076925,-4.630843076923076,-1.0922338461538463,-0.0821723076923076,-0.0014630769230769,0.0027184615384615,8.470705714956134,-1.3455,-4.232897202052726,-0.0251996428152416,-0.0264002976539653,0.0233002976539653
0.138,9.078283076923077,-4.630916923076923,-1.092306153846154,-0.0821676923076923,-0.001456923076923,0.0027215384615384,8.470705756671142,-1.3455,-4.232897181629753,-0.0251996402080536,-0.0264002998266219,0.0233002998266219
0.139,9.07820923076923,-4.6309907692307695,-1.0923784615384615,-0.0821630769230769,-0.0014507692307692,0.0027246153846153,8.47070579838615,-1.3455,-4.232897161206781,-0.0251996376008655,-0.0264003019992786,0.0233003019992786
0.14,9.078135384615384,-4.631064615384616,-1.0924507692307692,-0.0821584615384615,-0.0014446153846153,0.0027276923076923,8.470705840101159,-1.3455,-4.232897140783807,-0.0251996349936775,-0.0264003041719353,0.0233003041719353
0.141,9.078061538461538,-4.631138461538462,-1.092523076923077,-0.0821538461538461,-0.0014384615384615,0.0027307692307692,8.470705881816167,-1.3455,-4.2328971203608345,-0.0251996323864895,-0.026400306344592,0.023300306344592
0.142,9.077987692307692,-4.631212307692308,-1.0925953846153846,-0.0821492307692307,-0.0014323076923076,0.0027338461538461,8.470705923531176,-1.3455,-4.232897099937862,-0.0251996297793015,-0.0264003085172487,0.0233003085172487
0.143,9.077913846153846,-4.631286153846154,-1.0926676923076923,-0.0821446153846153,-0.0014261538461538,0.002736923076923,8.470705965246184,-1.3455,-4.232897079514889,-0.0251996271721135,-0.0264003106899054,0.0233003106899054
0.144,9.07784,-4.63136,-1.09274,-0.0821399999999999,-0.0014199999999999,0.00274,8.470706006961192,-1.3455,-4.232897059091917,-0.0251996245649255,-0.026400312862562,0.023300312862562
0.145,9.077766153846154,-4.631433846153846,-1.0928123076923075,-0.0821353846153846,-0.0014138461538461,0.0027430769230769,8.4707060486762,-1.3455,-4.232897038668943,-0.0251996219577374,-0.0264003150352187,0.0233003150352187
0.146,9.077692307692308,-4.631507692307692,-1.0928846153846157,-0.0821307692307692,-0.0014076923076923,0.0027461538461538,8.470706090391209,-1.3455,-4.23289701824597,-0.0251996193505494,-0.0264003172078754,0.0233003172078754
0.147,9.07761846153846,-4.631581538461538,-1.0929569230769232,-0.0821261538461538,-0.0014015384615384,0.0027492307692307,8.470706132106217,-1.3455,-4.232896997822998,-0.0251996167433614,-0.0264003193805321,0.0233003193805321
0.148,9.077544615384614,-4.631655384615384,-1.0930292307692309,-0.0821215384615384,-0.0013953846153846,0.0027523076923076,8.470706173821226,-1.3455,-4.232896977400025,-0.0251996141361734,-0.0264003215531888,0.0233003215531888
0.149,9.077470769230768,-4.63172923076923,-1.0931015384615386,-0.082116923076923,-0.0013892307692307,0.0027553846153846,8.470706215536234,-1.3455,-4.2328969569770525,-0.0251996115289854,-0.0264003237258454,0.0233003237258454
0.15,9.077396923076922,-4.6318030769230765,-1.0931738461538465,-0.0821123076923076,-0.0013830769230769,0.0027584615384615,8.470706257251242,-1.3455,-4.23289693655408,-0.0251996089217973,-0.0264003258985021,0.0233003258985021
0.151,9.077323076923076,-4.6318769230769234,-1.093246153846154,-0.0821076923076923,-0.001376923076923,0.0027615384615384,8.47070629896625,-1.3455,-4.232896916131106,-0.0251996063146093,-0.0264003280711588,0.0233003280711588
0.152,9.07724923076923,-4.6319507692307695,-1.0933184615384617,-0.0821030769230769,-0.0013707692307692,0.0027646153846153,8.470706340681259,-1.3455,-4.232896895708134,-0.0251996037074213,-0.0264003302438155,0.0233003302438155
0.153,9.077175384615384,-4.632024615384616,-1.0933907692307694,-0.0820984615384615,-0.0013646153846153,0.0027676923076923,8.470706382396267,-1.3455,-4.232896875285161,-0.0251996011002333,-0.0264003324164722,0.0233003324164722
0.154,9.077101538461536,-4.632098461538462,-1.093463076923077,-0.0820938461538461,-0.0013584615384615,0.0027707692307692,8.470706424111276,-1.3455,-4.232896854862188,-0.0251995984930453,-0.0264003345891288,0.0233003345891288
0.155,9.077027692307691,-4.632172307692308,-1.0935353846153848,-0.0820892307692307,-0.0013523076923076,0.0027738461538461,8.470706465826284,-1.3455,-4.232896834439216,-0.0251995958858573,-0.0264003367617855,0.0233003367617855
0.156,9.076953846153843,-4.632246153846154,-1.0936076923076925,-0.0820846153846153,-0.0013461538461538,0.002776923076923,8.470706507541292,-1.3455,-4.232896814016243,-0.0251995932786692,-0.0264003389344422,0.0233003389344422
0.157,9.07688,-4.63232,-1.0936800000000002,-0.08208,-0.0013399999999999,0.00278,8.4707065492563,-1.3455,-4.2328967935932695,-0.0251995906714812,-0.0264003411070989,0.0233003411070989
0.158,9.076806153846151,-4.632393846153846,-1.093752307692308,-0.0820753846153846,-0.0013338461538461,0.0027830769230769,8.470706590971309,-1.3455,-4.232896773170297,-0.0251995880642932,-0.0264003432797556,0.0233003432797556
0.159,9.076732307692309,-4.632467692307692,-1.0938246153846156,-0.0820707692307692,-0.0013276923076923,0.0027861538461538,8.470706632686317,-1.3455,-4.232896752747324,-0.0251995854571052,-0.0264003454524123,0.0233003454524123
0.16,9.07665846153846,-4.632541538461538,-1.093896923076923,-0.0820661538461538,-0.0013215384615384,0.0027892307692307,8.470706674401326,-1.3455,-4.232896732324352,-0.0251995828499172,-0.0264003476250689,0.0233003476250689
0.161,9.076584615384617,-4.632615384615384,-1.0939692307692308,-0.0820615384615384,-0.0013153846153846,0.0027923076923076,8.470706716116334,-1.3455,-4.232896711901379,-0.0251995802427292,-0.0264003497977256,0.0233003497977256
0.162,9.076510769230769,-4.6326892307692304,-1.0940415384615385,-0.082056923076923,-0.0013092307692307,0.0027953846153846,8.470706757831342,-1.3455,-4.232896691478405,-0.0251995776355411,-0.0264003519703823,0.0233003519703823
0.163,9.076436923076924,-4.632763076923077,-1.0941138461538462,-0.0820523076923076,-0.0013030769230769,0.0027984615384615,8.47070679954635,-1.3455,-4.232896671055433,-0.0251995750283531,-0.026400354143039,0.023300354143039
0.164,9.076363076923077,-4.632836923076924,-1.094186153846154,-0.0820476923076923,-0.001296923076923,0.0028015384615384,8.470706841261359,-1.3455,-4.23289665063246,-0.0251995724211651,-0.0264003563156957,0.0233003563156957
0.165,9.07628923076923,-4.63291076923077,-1.0942584615384616,-0.0820430769230769,-0.0012907692307692,0.0028046153846153,8.470706882976367,-1.3455,-4.232896630209488,-0.0251995698139771,-0.0264003584883523,0.0233003584883523
0.166,9.076215384615384,-4.632984615384616,-1.094330769230769,-0.0820384615384615,-0.0012846153846153,0.0028076923076923,8.470706924691376,-1.3455,-4.232896609786515,-0.0251995672067891,-0.026400360661009,0.023300360661009
0.167,9.076141538461538,-4.633058461538462,-1.094403076923077,-0.0820338461538461,-0.0012784615384615,0.0028107692307692,8.470706966406382,-1.3455,-4.232896589363542,-0.0251995645996011,-0.0264003628336657,0.0233003628336657
0.168,9.076067692307692,-4.633132307692308,-1.0944753846153847,-0.0820292307692307,-0.0012723076923076,0.0028138461538461,8.47070700812139,-1.3455,-4.232896568940569,-0.025199561992413,-0.0264003650063224,0.0233003650063224
0.169,9.075993846153846,-4.633206153846154,-1.0945476923076924,-0.0820246153846153,-0.0012661538461538,0.002816923076923,8.470707049836399,-1.3455,-4.232896548517596,-0.025199559385225,-0.0264003671789791,0.0233003671789791
0.17,9.07592,-4.63328,-1.09462,-0.08202,-0.0012599999999999,0.00282,8.470707091551407,-1.3455,-4.232896528094623,-0.025199556778037,-0.0264003693516357,0.0233003693516357
0.171,9.075846153846154,-4.633353846153846,-1.094692307692308,-0.0820153846153846,-0.0012538461538461,0.0028230769230769,8.470707133266416,-1.3455,-4.232896507671651,-0.025199554170849,-0.0264003715242924,0.0233003715242924
0.172,9.075772307692308,-4.633427692307692,-1.0947646153846156,-0.0820107692307692,-0.0012476923076923,0.0028261538461538,8.470707174981424,-1.3455,-4.232896487248678,-0.025199551563661,-0.0264003736969491,0.0233003736969491
0.173,9.075698461538462,-4.633501538461538,-1.0948369230769233,-0.0820061538461538,-0.0012415384615384,0.0028292307692307,8.470707216696432,-1.3455,-4.232896466825705,-0.0251995489564729,-0.0264003758696058,0.0233003758696058
0.174,9.075624615384616,-4.633575384615384,-1.094909230769231,-0.0820015384615384,-0.0012353846153846,0.0028323076923076,8.47070725841144,-1.3455,-4.232896446402732,-0.0251995463492849,-0.0264003780422625,0.0233003780422625
0.175,9.07555076923077,-4.633649230769231,-1.094981538461539,-0.081996923076923,-0.0012292307692307,0.0028353846153846,8.470707300126449,-1.3455,-4.232896425979759,-0.0251995437420969,-0.0264003802149191,0.0233003802149192
0.176,9.075476923076923,-4.6337230769230775,-1.0950538461538464,-0.0819923076923076,-0.0012230769230769,0.0028384615384615,8.470707341841457,-1.3455,-4.232896405556787,-0.0251995411349089,-0.0264003823875758,0.0233003823875758
0.177,9.075403076923076,-4.633796923076924,-1.095126153846154,-0.0819876923076923,-0.001216923076923,0.0028415384615384,8.470707383556466,-1.3455,-4.232896385133814,-0.0251995385277209,-0.0264003845602325,0.0233003845602325
0.178,9.07532923076923,-4.63387076923077,-1.0951984615384618,-0.0819830769230769,-0.0012107692307692,0.0028446153846153,8.470707425271474,-1.3455,-4.232896364710841,-0.0251995359205329,-0.0264003867328892,0.0233003867328892
0.179,9.075255384615383,-4.633944615384616,-1.0952707692307695,-0.0819784615384615,-0.0012046153846153,0.0028476923076923,8.470707466986482,-1.3455,-4.232896344287868,-0.0251995333133448,-0.0264003889055459,0.0233003889055459
0.18,9.075181538461536,-4.634018461538462,-1.095343076923077,-0.0819738461538461,-0.0011984615384615,0.0028507692307692,8.47070750870149,-1.3455,-4.232896323864895,-0.0251995307061568,-0.0264003910782026,0.0233003910782026
0.181,9.075107692307691,-4.634092307692308,-1.095415384615385,-0.0819692307692307,-0.0011923076923076,0.0028538461538461,8.470707550416499,-1.3455,-4.2328963034419225,-0.0251995280989688,-0.0264003932508592,0.0233003932508592
0.182,9.075033846153843,-4.634166153846154,-1.0954876923076924,-0.0819646153846153,-0.0011861538461538,0.002856923076923,8.470707592131507,-1.3455,-4.23289628301895,-0.0251995254917808,-0.0264003954235159,0.0233003954235159
0.183,9.07496,-4.63424,-1.09556,-0.0819599999999999,-0.0011799999999999,0.00286,8.470707633846516,-1.3455,-4.232896262595977,-0.0251995228845928,-0.0264003975961726,0.0233003975961726
0.184,9.074886153846151,-4.634313846153846,-1.0956323076923078,-0.0819553846153846,-0.0011738461538461,0.0028630769230769,8.470707675561524,-1.3455,-4.2328962421730045,-0.0251995202774048,-0.0264003997688293,0.0233003997688293
0.185,9.074812307692309,-4.634387692307692,-1.0957046153846155,-0.0819507692307692,-0.0011676923076922,0.0028661538461538,8.470707717276532,-1.3455,-4.232896221750031,-0.0251995176702167,-0.026400401941486,0.023300401941486
0.186,9.07473846153846,-4.634461538461538,-1.0957769230769232,-0.0819461538461538,-0.0011615384615384,0.0028692307692307,8.47070775899154,-1.3455,-4.232896201327058,-0.0251995150630287,-0.0264004041141426,0.0233004041141426
0.187,9.074664615384616,-4.6345353846153845,-1.095849230769231,-0.0819415384615384,-0.0011553846153846,0.0028723076923076,8.470707800706549,-1.3455,-4.232896180904086,-0.0251995124558407,-0.0264004062867993,0.0233004062867993
0.188,9.074590769230769,-4.634609230769232,-1.0959215384615386,-0.081936923076923,-0.0011492307692307,0.0028753846153846,8.470707842421557,-1.3455,-4.232896160481113,-0.0251995098486527,-0.026400408459456,0.023300408459456
0.189,9.074516923076922,-4.634683076923078,-1.0959938461538463,-0.0819323076923076,-0.0011430769230769,0.0028784615384615,8.470707884136566,-1.3455,-4.23289614005814,-0.0251995072414647,-0.0264004106321127,0.0233004106321127
0.19,9.074443076923076,-4.634756923076924,-1.096066153846154,-0.0819276923076923,-0.001136923076923,0.0028815384615384,8.470707925851574,-1.3455,-4.232896119635168,-0.0251995046342767,-0.0264004128047694,0.0233004128047694
0.191,9.07436923076923,-4.63483076923077,-1.0961384615384615,-0.0819230769230769,-0.0011307692307692,0.0028846153846153,8.470707967566582,-1.3455,-4.232896099212194,-0.0251995020270886,-0.026400414977426,0.023300414977426
0.192,9.074295384615384,-4.634904615384616,-1.0962107692307694,-0.0819184615384615,-0.0011246153846153,0.0028876923076923,8.47070800928159,-1.3455,-4.232896078789222,-0.0251994994199006,-0.0264004171500827,0.0233004171500827
0.193,9.074221538461538,-4.634978461538462,-1.0962830769230771,-0.0819138461538461,-0.0011184615384615,0.0028907692307692,8.470708050996599,-1.3455,-4.232896058366249,-0.0251994968127126,-0.0264004193227394,0.0233004193227394
0.194,9.074147692307692,-4.635052307692308,-1.0963553846153848,-0.0819092307692307,-0.0011123076923076,0.0028938461538461,8.470708092711607,-1.3455,-4.232896037943276,-0.0251994942055246,-0.0264004214953961,0.0233004214953961
0.195,9.074073846153846,-4.635126153846154,-1.0964276923076923,-0.0819046153846153,-0.0011061538461538,0.002896923076923,8.470708134426616,-1.3455,-4.232896017520304,-0.0251994915983366,-0.0264004236680528,0.0233004236680528
0.196,9.074,-4.6352,-1.0965000000000005,-0.0819,-0.0010999999999999,0.0029,8.470708176141624,-1.3455,-4.232895997097331,-0.0251994889911485,-0.0264004258407095,0.0233004258407095
0.197,9.073854545454545,-4.6351272727272725,-1.096645454545455,-0.0818984848484848,-0.0010954545454545,0.0029060606060606,8.47070821785663,-1.3455,-4.2328959766743575,-0.0251994863839605,-0.0264004280133661,0.0233004280133661
0.198,9.073709090909093,-4.635054545454546,-1.0967909090909094,-0.0818969696969696,-0.001090909090909,0.0029121212121212,8.470708259571639,-1.3455,-4.232895956251385,-0.0251994837767725,-0.0264004301860228,0.0233004301860228
0.199,9.073563636363636,-4.634981818181818,-1.096936363636364,-0.0818954545454545,-0.0010863636363636,0.0029181818181818,8.470708301286647,-1.3455,-4.232895935828412,-0.0251994811695845,-0.0264004323586795,0.0233004323586795
0.2,9.073418181818182,-4.634909090909091,-1.0970818181818185,-0.0818939393939394,-0.0010818181818181,0.0029242424242424,8.470708343001656,-1.3455,-4.23289591540544,-0.0251994785623965,-0.0264004345313362,0.0233004345313362
0.201,9.073272727272728,-4.634836363636364,-1.097227272727273,-0.0818924242424242,-0.0010772727272727,0.002930303030303,8.470708384716664,-1.3455,-4.232895894982467,-0.0251994759552085,-0.0264004367039929,0.0233004367039929
0.202,9.073127272727271,-4.634763636363636,-1.0973727272727276,-0.081890909090909,-0.0010727272727272,0.0029363636363636,8.470708426431672,-1.3455,-4.232895874559493,-0.0251994733480204,-0.0264004388766495,0.0233004388766495
0.203,9.072981818181818,-4.634690909090909,-1.097518181818182,-0.0818893939393939,-0.0010681818181818,0.0029424242424242,8.47070846814668,-1.3455,-4.232895854136521,-0.0251994707408324,-0.0264004410493062,0.0233004410493062
0.204,9.072836363636362,-4.6346181818181815,-1.0976636363636367,-0.0818878787878787,-0.0010636363636363,0.0029484848484848,8.470708509861689,-1.3455,-4.232895833713548,-0.0251994681336444,-0.0264004432219629,0.0233004432219629
0.205,9.072690909090907,-4.634545454545455,-1.0978090909090912,-0.0818863636363636,-0.0010590909090909,0.0029545454545454,8.470708551576697,-1.3455,-4.232895813290575,-0.0251994655264564,-0.0264004453946196,0.0233004453946196
0.206,9.072545454545454,-4.634472727272727,-1.0979545454545456,-0.0818848484848484,-0.0010545454545454,0.002960606060606,8.470708593291706,-1.3455,-4.232895792867603,-0.0251994629192684,-0.0264004475672763,0.0233004475672763
0.207,9.0724,-4.6344,-1.0981000000000003,-0.0818833333333333,-0.0010499999999999,0.0029666666666666,8.470708635006714,-1.3455,-4.23289577244463,-0.0251994603120804,-0.0264004497399329,0.0233004497399329
0.208,9.072254545454545,-4.634327272727273,-1.0982454545454547,-0.0818818181818181,-0.0010454545454545,0.0029727272727272,8.470708676721722,-1.3455,-4.232895752021657,-0.0251994577048923,-0.0264004519125896,0.0233004519125896
0.209,9.072109090909091,-4.634254545454546,-1.0983909090909094,-0.081880303030303,-0.001040909090909,0.0029787878787878,8.47070871843673,-1.3455,-4.232895731598684,-0.0251994550977043,-0.0264004540852463,0.0233004540852463
0.21,9.071963636363636,-4.634181818181818,-1.098536363636364,-0.0818787878787878,-0.0010363636363636,0.0029848484848484,8.470708760151739,-1.3455,-4.232895711175711,-0.0251994524905163,-0.026400456257903,0.023300456257903
0.211,9.07181818181818,-4.6341090909090905,-1.0986818181818183,-0.0818772727272727,-0.0010318181818181,0.002990909090909,8.470708801866747,-1.3455,-4.232895690752739,-0.0251994498833283,-0.0264004584305597,0.0233004584305597
0.212,9.071672727272729,-4.634036363636364,-1.098827272727273,-0.0818757575757575,-0.0010272727272727,0.0029969696969697,8.470708843581756,-1.3455,-4.232895670329766,-0.0251994472761403,-0.0264004606032164,0.0233004606032164
0.213,9.071527272727272,-4.633963636363636,-1.0989727272727274,-0.0818742424242424,-0.0010227272727272,0.0030030303030303,8.470708885296764,-1.3455,-4.232895649906793,-0.0251994446689523,-0.026400462775873,0.023300462775873
0.214,9.071381818181818,-4.633890909090909,-1.099118181818182,-0.0818727272727272,-0.0010181818181818,0.0030090909090909,8.470708927011772,-1.3455,-4.23289562948382,-0.0251994420617642,-0.0264004649485297,0.0233004649485297
0.215,9.071236363636364,-4.633818181818182,-1.0992636363636366,-0.0818712121212121,-0.0010136363636363,0.0030151515151515,8.47070896872678,-1.3455,-4.232895609060847,-0.0251994394545762,-0.0264004671211864,0.0233004671211864
0.216,9.071090909090907,-4.633745454545455,-1.0994090909090912,-0.0818696969696969,-0.0010090909090909,0.0030212121212121,8.470709010441789,-1.3455,-4.2328955886378745,-0.0251994368473882,-0.0264004692938431,0.0233004692938431
0.217,9.070945454545454,-4.633672727272727,-1.0995545454545457,-0.0818681818181818,-0.0010045454545454,0.0030272727272727,8.470709052156797,-1.3455,-4.232895568214902,-0.0251994342402002,-0.0264004714664998,0.0233004714664998
0.218,9.0708,-4.6336,-1.0997,-0.0818666666666666,-0.0009999999999999,0.0030333333333333,8.470709093871806,-1.3455,-4.232895547791929,-0.0251994316330122,-0.0264004736391564,0.0233004736391564
0.219,9.070654545454545,-4.633527272727273,-1.0998454545454548,-0.0818651515151515,-0.0009954545454545,0.0030393939393939,8.470709135586814,-1.3455,-4.232895527368956,-0.0251994290258241,-0.0264004758118131,0.0233004758118131
0.22,9.07050909090909,-4.633454545454545,-1.0999909090909092,-0.0818636363636363,-0.000990909090909,0.0030454545454545,8.470709177301822,-1.3455,-4.232895506945983,-0.0251994264186361,-0.0264004779844698,0.0233004779844698
0.221,9.070363636363636,-4.633381818181818,-1.100136363636364,-0.0818621212121212,-0.0009863636363636,0.0030515151515151,8.47070921901683,-1.3455,-4.23289548652301,-0.0251994238114481,-0.0264004801571265,0.0233004801571265
0.222,9.07021818181818,-4.633309090909091,-1.1002818181818184,-0.081860606060606,-0.0009818181818181,0.0030575757575757,8.470709260731839,-1.3455,-4.232895466100038,-0.0251994212042601,-0.0264004823297832,0.0233004823297832
0.223,9.070072727272729,-4.633236363636364,-1.100427272727273,-0.0818590909090909,-0.0009772727272727,0.0030636363636363,8.470709302446847,-1.3455,-4.232895445677065,-0.0251994185970721,-0.0264004845024398,0.0233004845024398
0.224,9.069927272727272,-4.633163636363636,-1.1005727272727277,-0.0818575757575757,-0.0009727272727272,0.0030696969696969,8.470709344161856,-1.3455,-4.2328954252540925,-0.0251994159898841,-0.0264004866750965,0.0233004866750965
0.225,9.069781818181818,-4.633090909090909,-1.100718181818182,-0.0818560606060606,-0.0009681818181818,0.0030757575757575,8.470709385876864,-1.3455,-4.232895404831119,-0.025199413382696,-0.0264004888477532,0.0233004888477532
0.226,9.069636363636365,-4.633018181818182,-1.1008636363636366,-0.0818545454545454,-0.0009636363636363,0.0030818181818181,8.470709427591872,-1.3455,-4.232895384408146,-0.025199410775508,-0.0264004910204099,0.0233004910204099
0.227,9.06949090909091,-4.632945454545455,-1.101009090909091,-0.0818530303030303,-0.0009590909090909,0.0030878787878787,8.47070946930688,-1.3455,-4.232895363985174,-0.02519940816832,-0.0264004931930666,0.0233004931930666
0.228,9.069345454545454,-4.632872727272727,-1.1011545454545455,-0.0818515151515151,-0.0009545454545454,0.0030939393939393,8.470709511021887,-1.3455,-4.232895343562201,-0.025199405561132,-0.0264004953657233,0.0233004953657233
0.229,9.0692,-4.6328,-1.1013000000000002,-0.0818499999999999,-0.0009499999999999,0.0031,8.470709552736896,-1.3455,-4.232895323139228,-0.025199402953944,-0.0264004975383799,0.0233004975383799
0.23,9.069054545454543,-4.632727272727273,-1.1014454545454546,-0.0818484848484848,-0.0009454545454545,0.0031060606060606,8.470709594451904,-1.3455,-4.232895302716256,-0.025199400346756,-0.0264004997110366,0.0233004997110366
0.231,9.06890909090909,-4.632654545454545,-1.1015909090909093,-0.0818469696969697,-0.000940909090909,0.0031121212121212,8.470709636166912,-1.3455,-4.232895282293282,-0.0251993977395679,-0.0264005018836933,0.0233005018836933
0.232,9.068763636363636,-4.632581818181818,-1.1017363636363635,-0.0818454545454545,-0.0009363636363636,0.0031181818181818,8.47070967788192,-1.3455,-4.2328952618703095,-0.0251993951323799,-0.02640050405635,0.02330050405635
0.233,9.06861818181818,-4.632509090909091,-1.1018818181818184,-0.0818439393939393,-0.0009318181818181,0.0031242424242424,8.470709719596929,-1.3455,-4.232895241447337,-0.0251993925251919,-0.0264005062290067,0.0233005062290067
0.234,9.068472727272727,-4.632436363636364,-1.1020272727272729,-0.0818424242424242,-0.0009272727272727,0.003130303030303,8.470709761311937,-1.3455,-4.232895221024364,-0.0251993899180039,-0.0264005084016633,0.0233005084016633
0.235,9.068327272727272,-4.632363636363636,-1.1021727272727275,-0.081840909090909,-0.0009227272727272,0.0031363636363636,8.470709803026946,-1.3455,-4.232895200601392,-0.0251993873108159,-0.02640051057432,0.02330051057432
0.236,9.068181818181818,-4.6322909090909095,-1.102318181818182,-0.0818393939393939,-0.0009181818181818,0.0031424242424242,8.470709844741954,-1.3455,-4.232895180178418,-0.0251993847036279,-0.0264005127469767,0.0233005127469767
0.237,9.068036363636365,-4.632218181818182,-1.1024636363636364,-0.0818378787878787,-0.0009136363636363,0.0031484848484848,8.470709886456962,-1.3455,-4.232895159755445,-0.0251993820964398,-0.0264005149196334,0.0233005149196334
0.238,9.067890909090908,-4.632145454545454,-1.102609090909091,-0.0818363636363636,-0.0009090909090909,0.0031545454545454,8.47070992817197,-1.3455,-4.232895139332473,-0.0251993794892518,-0.0264005170922901,0.0233005170922901
0.239,9.067745454545454,-4.632072727272727,-1.1027545454545455,-0.0818348484848484,-0.0009045454545454,0.003160606060606,8.470709969886979,-1.3455,-4.2328951189095,-0.0251993768820638,-0.0264005192649467,0.0233005192649467
0.24,9.0676,-4.632,-1.1029000000000002,-0.0818333333333333,-0.0008999999999999,0.0031666666666666,8.470710011601987,-1.3455,-4.232895098486528,-0.0251993742748758,-0.0264005214376034,0.0233005214376034
0.241,9.067454545454543,-4.631927272727273,-1.1030454545454549,-0.0818318181818181,-0.0008954545454545,0.0031727272727272,8.470710053316996,-1.3455,-4.232895078063555,-0.0251993716676878,-0.0264005236102601,0.0233005236102601
0.242,9.06730909090909,-4.631854545454545,-1.103190909090909,-0.081830303030303,-0.000890909090909,0.0031787878787878,8.470710095032004,-1.3455,-4.232895057640581,-0.0251993690604998,-0.0264005257829168,0.0233005257829168
0.243,9.067163636363636,-4.631781818181818,-1.1033363636363638,-0.0818287878787878,-0.0008863636363636,0.0031848484848484,8.470710136747012,-1.3455,-4.232895037217609,-0.0251993664533117,-0.0264005279555735,0.0233005279555735
0.244,9.06701818181818,-4.631709090909091,-1.1034818181818182,-0.0818272727272727,-0.0008818181818181,0.003190909090909,8.47071017846202,-1.3455,-4.232895016794636,-0.0251993638461237,-0.0264005301282301,0.0233005301282301
0.245,9.066872727272727,-4.631636363636364,-1.103627272727273,-0.0818257575757575,-0.0008772727272727,0.0031969696969696,8.470710220177029,-1.3455,-4.232894996371663,-0.0251993612389357,-0.0264005323008868,0.0233005323008868
0.246,9.066727272727272,-4.631563636363636,-1.1037727272727271,-0.0818242424242424,-0.0008727272727272,0.0032030303030303,8.470710261892037,-1.3455,-4.232894975948691,-0.0251993586317477,-0.0264005344735435,0.0233005344735435
0.247,9.066581818181817,-4.631490909090909,-1.1039181818181818,-0.0818227272727272,-0.0008681818181818,0.0032090909090909,8.470710303607046,-1.3455,-4.232894955525718,-0.0251993560245597,-0.0264005366462002,0.0233005366462002
0.248,9.066436363636363,-4.631418181818182,-1.1040636363636365,-0.0818212121212121,-0.0008636363636363,0.0032151515151515,8.470710345322054,-1.3455,-4.2328949351027445,-0.0251993534173716,-0.0264005388188569,0.0233005388188569
0.249,9.066290909090908,-4.631345454545454,-1.104209090909091,-0.0818196969696969,-0.0008590909090909,0.0032212121212121,8.470710387037062,-1.3455,-4.232894914679772,-0.0251993508101836,-0.0264005409915136,0.0233005409915136
0.25,9.066145454545454,-4.631272727272727,-1.1043545454545456,-0.0818181818181818,-0.0008545454545454,0.0032272727272727,8.47071042875207,-1.3455,-4.232894894256799,-0.0251993482029956,-0.0264005431641702,0.0233005431641702
0.251,9.066,-4.6312,-1.1045,-0.0818166666666666,-0.00085,0.0032333333333333,8.470710470467079,-1.3455,-4.232894873833827,-0.0251993455958076,-0.0264005453368269,0.0233005453368269
0.252,9.065854545454544,-4.631127272727273,-1.1046454545454547,-0.0818151515151515,-0.0008454545454545,0.0032393939393939,8.470710512182087,-1.3455,-4.232894853410854,-0.0251993429886196,-0.0264005475094836,0.0233005475094836
0.253,9.06570909090909,-4.631054545454545,-1.1047909090909092,-0.0818136363636363,-0.000840909090909,0.0032454545454545,8.470710553897096,-1.3455,-4.23289483298788,-0.0251993403814316,-0.0264005496821403,0.0233005496821403
0.254,9.065563636363636,-4.630981818181818,-1.1049363636363636,-0.0818121212121212,-0.0008363636363636,0.0032515151515151,8.470710595612104,-1.3455,-4.232894812564908,-0.0251993377742435,-0.026400551854797,0.023300551854797
0.255,9.06541818181818,-4.630909090909091,-1.1050818181818185,-0.081810606060606,-0.0008318181818181,0.0032575757575757,8.470710637327112,-1.3455,-4.232894792141935,-0.0251993351670555,-0.0264005540274536,0.0233005540274536
0.256,9.065272727272726,-4.630836363636363,-1.1052272727272727,-0.0818090909090909,-0.0008272727272727,0.0032636363636363,8.47071067904212,-1.3455,-4.232894771718962,-0.0251993325598675,-0.0264005562001103,0.0233005562001103
0.257,9.065127272727272,-4.630763636363636,-1.1053727272727274,-0.0818075757575757,-0.0008227272727272,0.0032696969696969,8.470710720757129,-1.3455,-4.23289475129599,-0.0251993299526795,-0.026400558372767,0.023300558372767
0.258,9.064981818181815,-4.630690909090909,-1.1055181818181818,-0.0818060606060606,-0.0008181818181818,0.0032757575757575,8.470710762472136,-1.3455,-4.232894730873017,-0.0251993273454915,-0.0264005605454237,0.0233005605454237
0.259,9.064836363636363,-4.630618181818182,-1.1056636363636363,-0.0818045454545454,-0.0008136363636363,0.0032818181818181,8.470710804187144,-1.3455,-4.232894710450044,-0.0251993247383035,-0.0264005627180804,0.0233005627180804
0.26,9.064690909090908,-4.630545454545454,-1.105809090909091,-0.0818030303030303,-0.0008090909090909,0.0032878787878787,8.470710845902152,-1.3455,-4.232894690027071,-0.0251993221311154,-0.026400564890737,0.023300564890737
0.261,9.064545454545454,-4.630472727272728,-1.1059545454545454,-0.0818015151515151,-0.0008045454545454,0.0032939393939393,8.47071088761716,-1.3455,-4.232894669604098,-0.0251993195239274,-0.0264005670633937,0.0233005670633937
0.262,9.0644,-4.6304,-1.1061,-0.0818,-0.0008,0.0032999999999999,8.470710929332169,-1.3455,-4.232894649181126,-0.0251993169167394,-0.0264005692360504,0.0233005692360504
0.263,9.064547692307691,-4.630252307692308,-1.106026153846154,-0.0818046153846153,-0.0008046153846153,0.0032938461538461,8.470710971047177,-1.3455,-4.232894628758153,-0.0251993143095514,-0.0264005714087071,0.0233005714087071
0.264,9.064695384615383,-4.630104615384616,-1.105952307692308,-0.0818092307692307,-0.0008092307692307,0.0032876923076923,8.470711012762186,-1.3455,-4.23289460833518,-0.0251993117023634,-0.0264005735813638,0.0233005735813638
0.265,9.064843076923076,-4.629956923076923,-1.1058784615384616,-0.0818138461538461,-0.0008138461538461,0.0032815384615384,8.470711054477194,-1.3455,-4.232894587912207,-0.0251993090951754,-0.0264005757540205,0.0233005757540205
0.266,9.064990769230768,-4.62980923076923,-1.1058046153846155,-0.0818184615384615,-0.0008184615384615,0.0032753846153846,8.470711096192202,-1.3455,-4.232894567489234,-0.0251993064879873,-0.0264005779266771,0.0233005779266771
0.267,9.06513846153846,-4.629661538461538,-1.1057307692307694,-0.0818230769230769,-0.0008230769230769,0.0032692307692307,8.47071113790721,-1.3455,-4.232894547066262,-0.0251993038807993,-0.0264005800993338,0.0233005800993338
0.268,9.065286153846152,-4.629513846153846,-1.105656923076923,-0.0818276923076923,-0.0008276923076923,0.0032630769230769,8.470711179622219,-1.3455,-4.232894526643289,-0.0251993012736113,-0.0264005822719905,0.0233005822719905
0.269,9.065433846153846,-4.629366153846154,-1.105583076923077,-0.0818323076923076,-0.0008323076923076,0.003256923076923,8.470711221337227,-1.3455,-4.232894506220316,-0.0251992986664233,-0.0264005844446472,0.0233005844446472
0.27,9.065581538461538,-4.6292184615384615,-1.105509230769231,-0.081836923076923,-0.000836923076923,0.0032507692307692,8.470711263052236,-1.3455,-4.232894485797343,-0.0251992960592353,-0.0264005866173039,0.0233005866173039
0.271,9.06572923076923,-4.629070769230769,-1.1054353846153846,-0.0818415384615384,-0.0008415384615384,0.0032446153846153,8.470711304767244,-1.3455,-4.23289446537437,-0.0251992934520472,-0.0264005887899605,0.0233005887899605
0.272,9.065876923076924,-4.628923076923077,-1.1053615384615385,-0.0818461538461538,-0.0008461538461538,0.0032384615384615,8.470711346482252,-1.3455,-4.232894444951397,-0.0251992908448592,-0.0264005909626172,0.0233005909626172
0.273,9.066024615384617,-4.628775384615384,-1.1052876923076924,-0.0818507692307692,-0.0008507692307692,0.0032323076923076,8.47071138819726,-1.3455,-4.232894424528425,-0.0251992882376712,-0.0264005931352739,0.0233005931352739
0.274,9.066172307692309,-4.628627692307692,-1.105213846153846,-0.0818553846153846,-0.0008553846153846,0.0032261538461538,8.470711429912269,-1.3455,-4.232894404105452,-0.0251992856304832,-0.0264005953079306,0.0233005953079306
0.275,9.06632,-4.62848,-1.10514,-0.08186,-0.00086,0.0032199999999999,8.470711471627277,-1.3455,-4.23289438368248,-0.0251992830232952,-0.0264005974805873,0.0233005974805873
0.276,9.066467692307691,-4.628332307692308,-1.105066153846154,-0.0818646153846153,-0.0008646153846153,0.0032138461538461,8.470711513342286,-1.3455,-4.232894363259506,-0.0251992804161072,-0.0264005996532439,0.0233005996532439
0.277,9.066615384615384,-4.628184615384615,-1.1049923076923078,-0.0818692307692307,-0.0008692307692307,0.0032076923076923,8.470711555057294,-1.3455,-4.232894342836533,-0.0251992778089191,-0.0264006018259006,0.0233006018259006
0.278,9.066763076923076,-4.628036923076923,-1.1049184615384615,-0.0818738461538461,-0.0008738461538461,0.0032015384615384,8.470711596772302,-1.3455,-4.232894322413561,-0.0251992752017311,-0.0264006039985573,0.0233006039985573
0.279,9.066910769230768,-4.627889230769231,-1.1048446153846154,-0.0818784615384615,-0.0008784615384615,0.0031953846153846,8.47071163848731,-1.3455,-4.232894301990588,-0.0251992725945431,-0.026400606171214,0.023300606171214
0.28,9.06705846153846,-4.627741538461538,-1.1047707692307691,-0.0818830769230769,-0.0008830769230769,0.0031892307692307,8.470711680202319,-1.3455,-4.232894281567615,-0.0251992699873551,-0.0264006083438707,0.0233006083438707
0.281,9.067206153846152,-4.627593846153846,-1.104696923076923,-0.0818876923076923,-0.0008876923076923,0.0031830769230769,8.470711721917327,-1.3455,-4.232894261144643,-0.0251992673801671,-0.0264006105165274,0.0233006105165274
0.282,9.067353846153846,-4.6274461538461535,-1.104623076923077,-0.0818923076923077,-0.0008923076923076,0.003176923076923,8.470711763632336,-1.3455,-4.232894240721669,-0.0251992647729791,-0.026400612689184,0.023300612689184
0.283,9.06750153846154,-4.627298461538461,-1.1045492307692308,-0.081896923076923,-0.000896923076923,0.0031707692307692,8.470711805347344,-1.3455,-4.2328942202986966,-0.025199262165791,-0.0264006148618407,0.0233006148618407
0.284,9.06764923076923,-4.627150769230769,-1.1044753846153843,-0.0819015384615384,-0.0009015384615384,0.0031646153846153,8.470711847062352,-1.3455,-4.232894199875724,-0.025199259558603,-0.0264006170344974,0.0233006170344974
0.285,9.067796923076925,-4.627003076923077,-1.1044015384615384,-0.0819061538461538,-0.0009061538461538,0.0031584615384615,8.47071188877736,-1.3455,-4.232894179452751,-0.025199256951415,-0.0264006192071541,0.0233006192071541
0.286,9.067944615384617,-4.626855384615385,-1.1043276923076923,-0.0819107692307692,-0.0009107692307692,0.0031523076923076,8.470711930492369,-1.3455,-4.232894159029779,-0.025199254344227,-0.0264006213798108,0.0233006213798108
0.287,9.068092307692307,-4.626707692307692,-1.1042538461538465,-0.0819153846153846,-0.0009153846153846,0.0031461538461538,8.470711972207377,-1.3455,-4.232894138606805,-0.025199251737039,-0.0264006235524674,0.0233006235524674
0.288,9.06824,-4.62656,-1.10418,-0.08192,-0.00092,0.0031399999999999,8.470712013922384,-1.3455,-4.232894118183832,-0.0251992491298509,-0.0264006257251241,0.0233006257251241
0.289,9.068387692307692,-4.626412307692307,-1.1041061538461538,-0.0819246153846153,-0.0009246153846153,0.0031338461538461,8.470712055637392,-1.3455,-4.23289409776086,-0.0251992465226629,-0.0264006278977808,0.0233006278977808
0.29,9.068535384615384,-4.626264615384615,-1.1040323076923078,-0.0819292307692307,-0.0009292307692307,0.0031276923076923,8.4707120973524,-1.3455,-4.232894077337887,-0.0251992439154749,-0.0264006300704375,0.0233006300704375
0.291,9.068683076923076,-4.626116923076923,-1.1039584615384614,-0.0819338461538461,-0.0009338461538461,0.0031215384615384,8.470712139067409,-1.3455,-4.2328940569149145,-0.0251992413082869,-0.0264006322430942,0.0233006322430942
0.292,9.068830769230768,-4.625969230769231,-1.1038846153846154,-0.0819384615384615,-0.0009384615384615,0.0031153846153846,8.470712180782417,-1.3455,-4.232894036491942,-0.0251992387010989,-0.0264006344157508,0.0233006344157508
0.293,9.06897846153846,-4.625821538461539,-1.1038107692307693,-0.0819430769230769,-0.0009430769230769,0.0031092307692307,8.470712222497426,-1.3455,-4.232894016068968,-0.0251992360939109,-0.0264006365884075,0.0233006365884075
0.294,9.069126153846154,-4.625673846153846,-1.103736923076923,-0.0819476923076923,-0.0009476923076923,0.0031030769230769,8.470712264212434,-1.3455,-4.232893995645996,-0.0251992334867228,-0.0264006387610642,0.0233006387610642
0.295,9.069273846153846,-4.625526153846153,-1.1036630769230769,-0.0819523076923077,-0.0009523076923076,0.003096923076923,8.470712305927442,-1.3455,-4.232893975223023,-0.0251992308795348,-0.0264006409337209,0.0233006409337209
0.296,9.06942153846154,-4.625378461538461,-1.1035892307692308,-0.081956923076923,-0.000956923076923,0.0030907692307692,8.47071234764245,-1.3455,-4.23289395480005,-0.0251992282723468,-0.0264006431063776,0.0233006431063776
0.297,9.06956923076923,-4.625230769230769,-1.103515384615385,-0.0819615384615384,-0.0009615384615384,0.0030846153846153,8.470712389357459,-1.3455,-4.232893934377078,-0.0251992256651588,-0.0264006452790342,0.0233006452790342
0.298,9.069716923076925,-4.625083076923077,-1.1034415384615384,-0.0819661538461538,-0.0009661538461538,0.0030784615384615,8.470712431072467,-1.3455,-4.232893913954105,-0.0251992230579708,-0.0264006474516909,0.0233006474516909
0.299,9.069864615384615,-4.624935384615385,-1.1033676923076925,-0.0819707692307692,-0.0009707692307692,0.0030723076923076,8.470712472787476,-1.3455,-4.232893893531132,-0.0251992204507828,-0.0264006496243476,0.0233006496243476
0.3,9.070012307692307,-4.6247876923076925,-1.1032938461538462,-0.0819753846153846,-0.0009753846153846,0.0030661538461538,8.470712514502484,-1.3455,-4.232893873108159,-0.0251992178435947,-0.0264006517970043,0.0233006517970043
0.301,9.07016,-4.624639999999999,-1.10322,-0.08198,-0.00098,0.0030599999999999,8.470712556217492,-1.3455,-4.232893852685186,-0.0251992152364067,-0.026400653969661,0.023300653969661
0.302,9.070307692307692,-4.624492307692307,-1.1031461538461538,-0.0819846153846153,-0.0009846153846153,0.0030538461538461,8.4707125979325,-1.3455,-4.232893832262214,-0.0251992126292187,-0.0264006561423177,0.0233006561423177
0.303,9.070455384615384,-4.624344615384615,-1.1030723076923077,-0.0819892307692307,-0.0009892307692307,0.0030476923076923,8.470712639647509,-1.3455,-4.232893811839241,-0.0251992100220307,-0.0264006583149743,0.0233006583149743
0.304,9.070603076923076,-4.624196923076923,-1.1029984615384614,-0.0819938461538461,-0.0009938461538461,0.0030415384615384,8.470712681362517,-1.3455,-4.232893791416267,-0.0251992074148427,-0.026400660487631,0.023300660487631
0.305,9.070750769230768,-4.624049230769231,-1.1029246153846153,-0.0819984615384615,-0.0009984615384615,0.0030353846153846,8.470712723077526,-1.3455,-4.232893770993295,-0.0251992048076547,-0.0264006626602877,0.0233006626602877
0.306,9.07089846153846,-4.6239015384615385,-1.1028507692307692,-0.0820030769230769,-0.0010030769230769,0.0030292307692307,8.470712764792534,-1.3455,-4.232893750570322,-0.0251992022004666,-0.0264006648329444,0.0233006648329444
0.307,9.071046153846154,-4.623753846153846,-1.1027769230769229,-0.0820076923076923,-0.0010076923076923,0.0030230769230769,8.470712806507542,-1.3455,-4.2328937301473495,-0.0251991995932786,-0.0264006670056011,0.0233006670056011
0.308,9.071193846153848,-4.623606153846153,-1.1027030769230768,-0.0820123076923077,-0.0010123076923076,0.003016923076923,8.47071284822255,-1.3455,-4.232893709724377,-0.0251991969860906,-0.0264006691782577,0.0233006691782577
0.309,9.07134153846154,-4.623458461538461,-1.1026292307692307,-0.082016923076923,-0.001016923076923,0.0030107692307692,8.470712889937559,-1.3455,-4.232893689301404,-0.0251991943789026,-0.0264006713509144,0.0233006713509144
0.31,9.071489230769233,-4.623310769230769,-1.1025553846153846,-0.0820215384615384,-0.0010215384615384,0.0030046153846153,8.470712931652567,-1.3455,-4.232893668878431,-0.0251991917717146,-0.0264006735235711,0.0233006735235711
0.311,9.071636923076923,-4.623163076923077,-1.1024815384615383,-0.0820261538461538,-0.0010261538461538,0.0029984615384615,8.470712973367576,-1.3455,-4.232893648455458,-0.0251991891645266,-0.0264006756962278,0.0233006756962278
0.312,9.071784615384615,-4.6230153846153845,-1.1024076923076922,-0.0820307692307692,-0.0010307692307692,0.0029923076923076,8.470713015082584,-1.3455,-4.232893628032485,-0.0251991865573385,-0.0264006778688845,0.0233006778688845
0.313,9.071932307692308,-4.622867692307692,-1.102333846153846,-0.0820353846153846,-0.0010353846153846,0.0029861538461538,8.470713056797592,-1.3455,-4.232893607609513,-0.0251991839501505,-0.0264006800415411,0.0233006800415411
0.314,9.07208,-4.62272,-1.1022599999999998,-0.08204,-0.00104,0.0029799999999999,8.4707130985126,-1.3455,-4.23289358718654,-0.0251991813429625,-0.0264006822141978,0.0233006822141978
0.315,9.072227692307692,-4.622572307692307,-1.1021861538461537,-0.0820446153846154,-0.0010446153846153,0.0029738461538461,8.470713140227609,-1.3455,-4.232893566763567,-0.0251991787357745,-0.0264006843868545,0.0233006843868545
0.316,9.072375384615384,-4.622424615384615,-1.1021123076923076,-0.0820492307692307,-0.0010492307692307,0.0029676923076922,8.470713181942617,-1.3455,-4.232893546340594,-0.0251991761285865,-0.0264006865595112,0.0233006865595112
0.317,9.072523076923076,-4.622276923076923,-1.1020384615384613,-0.0820538461538461,-0.0010538461538461,0.0029615384615384,8.470713223657626,-1.3455,-4.232893525917621,-0.0251991735213984,-0.0264006887321679,0.0233006887321679
0.318,9.072670769230768,-4.622129230769231,-1.1019646153846152,-0.0820584615384615,-0.0010584615384615,0.0029553846153846,8.470713265372632,-1.3455,-4.232893505494649,-0.0251991709142104,-0.0264006909048246,0.0233006909048246
0.319,9.072818461538462,-4.621981538461538,-1.1018907692307691,-0.0820630769230769,-0.0010630769230769,0.0029492307692307,8.47071330708764,-1.3455,-4.232893485071676,-0.0251991683070224,-0.0264006930774812,0.0233006930774812
0.32,9.072966153846156,-4.621833846153846,-1.101816923076923,-0.0820676923076923,-0.0010676923076923,0.0029430769230769,8.470713348802649,-1.3455,-4.232893464648703,-0.0251991656998344,-0.0264006952501379,0.0233006952501379
0.321,9.073113846153849,-4.621686153846154,-1.1017430769230767,-0.0820723076923077,-0.0010723076923076,0.002936923076923,8.470713390517657,-1.3455,-4.232893444225731,-0.0251991630926464,-0.0264006974227946,0.0233006974227946
0.322,9.07326153846154,-4.621538461538461,-1.1016692307692306,-0.082076923076923,-0.001076923076923,0.0029307692307692,8.470713432232666,-1.3455,-4.232893423802757,-0.0251991604854584,-0.0264006995954513,0.0233006995954513
0.323,9.073409230769231,-4.621390769230769,-1.1015953846153843,-0.0820815384615384,-0.0010815384615384,0.0029246153846153,8.470713473947674,-1.3455,-4.2328934033797845,-0.0251991578782703,-0.026400701768108,0.023300701768108
0.324,9.073556923076923,-4.621243076923077,-1.1015215384615382,-0.0820861538461538,-0.0010861538461538,0.0029184615384615,8.470713515662682,-1.3455,-4.232893382956812,-0.0251991552710823,-0.0264007039407646,0.0233007039407646
0.325,9.073704615384615,-4.621095384615384,-1.101447692307692,-0.0820907692307692,-0.0010907692307692,0.0029123076923076,8.47071355737769,-1.3455,-4.232893362533839,-0.0251991526638943,-0.0264007061134213,0.0233007061134213
0.326,9.073852307692308,-4.620947692307692,-1.101373846153846,-0.0820953846153846,-0.0010953846153846,0.0029061538461538,8.470713599092699,-1.3455,-4.2328933421108665,-0.0251991500567063,-0.026400708286078,0.023300708286078
0.327,9.074,-4.6208,-1.1013000000000002,-0.0820999999999999,-0.0010999999999999,0.0028999999999999,8.470713640807707,-1.3455,-4.232893321687893,-0.0251991474495183,-0.0264007104587347,0.0233007104587347
0.328,9.073783333333331,-4.620872727272728,-1.1014454545454548,-0.0820939393939393,-0.001090909090909,0.0028969696969696,8.470713682522716,-1.3455,-4.23289330126492,-0.0251991448423303,-0.0264007126313914,0.0233007126313914
0.329,9.073566666666666,-4.620945454545455,-1.1015909090909093,-0.0820878787878787,-0.0010818181818181,0.0028939393939393,8.470713724237724,-1.3455,-4.232893280841948,-0.0251991422351422,-0.026400714804048,0.023300714804048
0.33,9.07335,-4.621018181818182,-1.1017363636363635,-0.0820818181818181,-0.0010727272727272,0.002890909090909,8.470713765952732,-1.3455,-4.232893260418975,-0.0251991396279542,-0.0264007169767047,0.0233007169767047
0.331,9.073133333333333,-4.621090909090909,-1.1018818181818184,-0.0820757575757575,-0.0010636363636363,0.0028878787878787,8.47071380766774,-1.3455,-4.232893239996002,-0.0251991370207662,-0.0264007191493614,0.0233007191493614
0.332,9.072916666666666,-4.621163636363637,-1.1020272727272729,-0.0820696969696969,-0.0010545454545454,0.0028848484848484,8.470713849382749,-1.3455,-4.23289321957303,-0.0251991344135782,-0.0264007213220181,0.0233007213220181
0.333,9.0727,-4.621236363636363,-1.1021727272727275,-0.0820636363636363,-0.0010454545454545,0.0028818181818181,8.470713891097757,-1.3455,-4.232893199150056,-0.0251991318063902,-0.0264007234946748,0.0233007234946748
0.334,9.072483333333333,-4.621309090909091,-1.102318181818182,-0.0820575757575757,-0.0010363636363636,0.0028787878787878,8.470713932812766,-1.3455,-4.232893178727084,-0.0251991291992022,-0.0264007256673315,0.0233007256673315
0.335,9.072266666666666,-4.621381818181819,-1.1024636363636366,-0.0820515151515151,-0.0010272727272727,0.0028757575757575,8.470713974527774,-1.3455,-4.232893158304111,-0.0251991265920141,-0.0264007278399881,0.0233007278399881
0.336,9.07205,-4.6214545454545455,-1.102609090909091,-0.0820454545454545,-0.0010181818181818,0.0028727272727272,8.470714016242782,-1.3455,-4.232893137881138,-0.0251991239848261,-0.0264007300126448,0.0233007300126448
0.337,9.071833333333332,-4.621527272727273,-1.1027545454545455,-0.0820393939393939,-0.0010090909090908,0.0028696969696969,8.47071405795779,-1.3455,-4.232893117458166,-0.0251991213776381,-0.0264007321853015,0.0233007321853015
0.338,9.071616666666666,-4.6216,-1.1029000000000002,-0.0820333333333333,-0.0009999999999999,0.0028666666666666,8.470714099672799,-1.3455,-4.232893097035193,-0.0251991187704501,-0.0264007343579582,0.0233007343579582
0.339,9.0714,-4.621672727272728,-1.1030454545454549,-0.0820272727272727,-0.000990909090909,0.0028636363636363,8.470714141387807,-1.3455,-4.23289307661222,-0.0251991161632621,-0.0264007365306149,0.0233007365306149
0.34,9.071183333333332,-4.621745454545454,-1.103190909090909,-0.0820212121212121,-0.0009818181818181,0.002860606060606,8.470714183102816,-1.3455,-4.232893056189247,-0.025199113556074,-0.0264007387032715,0.0233007387032715
0.341,9.070966666666664,-4.621818181818182,-1.1033363636363638,-0.0820151515151515,-0.0009727272727272,0.0028575757575757,8.470714224817824,-1.3455,-4.232893035766274,-0.025199110948886,-0.0264007408759282,0.0233007408759282
0.342,9.07075,-4.62189090909091,-1.1034818181818182,-0.0820090909090909,-0.0009636363636363,0.0028545454545454,8.470714266532832,-1.3455,-4.2328930153433015,-0.025199108341698,-0.0264007430485849,0.0233007430485849
0.343,9.070533333333334,-4.6219636363636365,-1.103627272727273,-0.0820030303030303,-0.0009545454545454,0.0028515151515151,8.47071430824784,-1.3455,-4.232892994920329,-0.02519910573451,-0.0264007452212416,0.0233007452212416
0.344,9.070316666666669,-4.622036363636364,-1.1037727272727271,-0.0819969696969697,-0.0009454545454545,0.0028484848484848,8.470714349962849,-1.3455,-4.232892974497355,-0.025199103127322,-0.0264007473938983,0.0233007473938983
0.345,9.0701,-4.622109090909091,-1.103918181818182,-0.081990909090909,-0.0009363636363636,0.0028454545454545,8.470714391677857,-1.3455,-4.232892954074383,-0.025199100520134,-0.0264007495665549,0.0233007495665549
0.346,9.069883333333332,-4.622181818181819,-1.1040636363636365,-0.0819848484848484,-0.0009272727272727,0.0028424242424242,8.470714433392866,-1.3455,-4.23289293365141,-0.0251990979129459,-0.0264007517392116,0.0233007517392116
0.347,9.069666666666668,-4.622254545454545,-1.1042090909090911,-0.0819787878787878,-0.0009181818181818,0.0028393939393939,8.470714475107874,-1.3455,-4.232892913228437,-0.0251990953057579,-0.0264007539118683,0.0233007539118683
0.348,9.06945,-4.622327272727273,-1.1043545454545456,-0.0819727272727272,-0.0009090909090908,0.0028363636363636,8.470714516822882,-1.3455,-4.232892892805465,-0.0251990926985699,-0.026400756084525,0.023300756084525
0.349,9.069233333333331,-4.6224,-1.1045,-0.0819666666666666,-0.0008999999999999,0.0028333333333333,8.470714558537889,-1.3455,-4.232892872382492,-0.0251990900913819,-0.0264007582571817,0.0233007582571817
0.35,9.069016666666666,-4.622472727272728,-1.1046454545454547,-0.081960606060606,-0.000890909090909,0.002830303030303,8.470714600252897,-1.3455,-4.232892851959519,-0.0251990874841939,-0.0264007604298383,0.0233007604298383
0.351,9.0688,-4.622545454545455,-1.1047909090909092,-0.0819545454545454,-0.0008818181818181,0.0028272727272727,8.470714641967906,-1.3455,-4.232892831536546,-0.0251990848770059,-0.026400762602495,0.023300762602495
0.352,9.068583333333333,-4.622618181818182,-1.1049363636363638,-0.0819484848484848,-0.0008727272727272,0.0028242424242424,8.470714683682914,-1.3455,-4.232892811113573,-0.0251990822698178,-0.0264007647751517,0.0233007647751517
0.353,9.068366666666666,-4.62269090909091,-1.1050818181818185,-0.0819424242424242,-0.0008636363636363,0.0028212121212121,8.470714725397922,-1.3455,-4.232892790690601,-0.0251990796626298,-0.0264007669478084,0.0233007669478084
0.354,9.06815,-4.622763636363636,-1.1052272727272727,-0.0819363636363636,-0.0008545454545454,0.0028181818181818,8.47071476711293,-1.3455,-4.232892770267628,-0.0251990770554418,-0.0264007691204651,0.0233007691204651
0.355,9.067933333333333,-4.622836363636364,-1.1053727272727274,-0.081930303030303,-0.0008454545454545,0.0028151515151515,8.470714808827939,-1.3455,-4.232892749844655,-0.0251990744482538,-0.0264007712931218,0.0233007712931218
0.356,9.067716666666666,-4.622909090909091,-1.1055181818181818,-0.0819242424242424,-0.0008363636363636,0.0028121212121212,8.470714850542947,-1.3455,-4.232892729421682,-0.0251990718410658,-0.0264007734657784,0.0233007734657784
0.357,9.0675,-4.6229818181818185,-1.1056636363636363,-0.0819181818181818,-0.0008272727272727,0.0028090909090909,8.470714892257956,-1.3455,-4.232892708998709,-0.0251990692338778,-0.0264007756384351,0.0233007756384351
0.358,9.067283333333332,-4.623054545454545,-1.105809090909091,-0.0819121212121212,-0.0008181818181818,0.0028060606060606,8.470714933972964,-1.3455,-4.2328926885757365,-0.0251990666266897,-0.0264007778110918,0.0233007778110918
0.359,9.067066666666664,-4.623127272727273,-1.1059545454545454,-0.0819060606060606,-0.0008090909090909,0.0028030303030303,8.470714975687972,-1.3455,-4.232892668152764,-0.0251990640195017,-0.0264007799837485,0.0233007799837485
0.36,9.06685,-4.623200000000001,-1.1061,-0.0819,-0.0007999999999999,0.0027999999999999,8.47071501740298,-1.3455,-4.232892647729791,-0.0251990614123137,-0.0264007821564052,0.0233007821564052
0.361,9.066633333333332,-4.623272727272727,-1.1062454545454543,-0.0818939393939394,-0.000790909090909,0.0027969696969696,8.470715059117989,-1.3455,-4.232892627306818,-0.0251990588051257,-0.0264007843290618,0.0233007843290618
0.362,9.066416666666669,-4.623345454545455,-1.1063909090909092,-0.0818878787878787,-0.0007818181818181,0.0027939393939393,8.470715100832997,-1.3455,-4.232892606883845,-0.0251990561979377,-0.0264007865017185,0.0233007865017185
0.363,9.0662,-4.623418181818182,-1.1065363636363637,-0.0818818181818181,-0.0007727272727272,0.002790909090909,8.470715142548006,-1.3455,-4.232892586460872,-0.0251990535907496,-0.0264007886743752,0.0233007886743752
0.364,9.065983333333334,-4.6234909090909095,-1.1066818181818183,-0.0818757575757575,-0.0007636363636363,0.0027878787878787,8.470715184263014,-1.3455,-4.2328925660379,-0.0251990509835616,-0.0264007908470319,0.0233007908470319
0.365,9.065766666666669,-4.623563636363636,-1.1068272727272728,-0.0818696969696969,-0.0007545454545454,0.0027848484848484,8.470715225978022,-1.3455,-4.232892545614927,-0.0251990483763736,-0.0264007930196886,0.0233007930196886
0.366,9.06555,-4.623636363636364,-1.1069727272727272,-0.0818636363636363,-0.0007454545454545,0.0027818181818181,8.47071526769303,-1.3455,-4.2328925251919545,-0.0251990457691856,-0.0264007951923452,0.0233007951923453
0.367,9.065333333333331,-4.623709090909091,-1.107118181818182,-0.0818575757575757,-0.0007363636363636,0.0027787878787878,8.470715309408039,-1.3455,-4.232892504768981,-0.0251990431619976,-0.0264007973650019,0.0233007973650019
0.368,9.065116666666666,-4.623781818181818,-1.1072636363636363,-0.0818515151515151,-0.0007272727272727,0.0027757575757575,8.470715351123047,-1.3455,-4.232892484346008,-0.0251990405548096,-0.0264007995376586,0.0233007995376586
0.369,9.0649,-4.623854545454546,-1.107409090909091,-0.0818454545454545,-0.0007181818181818,0.0027727272727272,8.470715392838056,-1.3455,-4.232892463923036,-0.0251990379476215,-0.0264008017103153,0.0233008017103153
0.37,9.064683333333331,-4.623927272727273,-1.1075545454545457,-0.0818393939393939,-0.0007090909090909,0.0027696969696969,8.470715434553064,-1.3455,-4.232892443500063,-0.0251990353404335,-0.026400803882972,0.023300803882972
0.371,9.064466666666666,-4.6240000000000006,-1.1077,-0.0818333333333333,-0.0006999999999999,0.0027666666666666,8.470715476268072,-1.3455,-4.23289242307709,-0.0251990327332455,-0.0264008060556287,0.0233008060556287
0.372,9.06425,-4.624072727272727,-1.1078454545454546,-0.0818272727272727,-0.000690909090909,0.0027636363636363,8.47071551798308,-1.3455,-4.232892402654118,-0.0251990301260575,-0.0264008082282853,0.0233008082282853
0.373,9.064033333333333,-4.624145454545455,-1.107990909090909,-0.0818212121212121,-0.0006818181818181,0.002760606060606,8.470715559698089,-1.3455,-4.232892382231144,-0.0251990275188695,-0.026400810400942,0.023300810400942
0.374,9.063816666666666,-4.624218181818182,-1.1081363636363637,-0.0818151515151515,-0.0006727272727272,0.0027575757575757,8.470715601413097,-1.3455,-4.232892361808172,-0.0251990249116815,-0.0264008125735987,0.0233008125735987
0.375,9.0636,-4.6242909090909095,-1.108281818181818,-0.0818090909090909,-0.0006636363636363,0.0027545454545454,8.470715643128106,-1.3455,-4.232892341385199,-0.0251990223044934,-0.0264008147462554,0.0233008147462554
0.376,9.063383333333332,-4.624363636363636,-1.1084272727272728,-0.0818030303030303,-0.0006545454545454,0.0027515151515151,8.470715684843114,-1.3455,-4.232892320962226,-0.0251990196973054,-0.0264008169189121,0.0233008169189121
0.377,9.063166666666666,-4.624436363636364,-1.1085727272727273,-0.0817969696969697,-0.0006454545454545,0.0027484848484848,8.470715726558122,-1.3455,-4.232892300539254,-0.0251990170901174,-0.0264008190915687,0.0233008190915687
0.378,9.06295,-4.624509090909092,-1.1087181818181815,-0.0817909090909091,-0.0006363636363636,0.0027454545454545,8.47071576827313,-1.3455,-4.23289228011628,-0.0251990144829294,-0.0264008212642254,0.0233008212642254
0.379,9.062733333333332,-4.624581818181818,-1.1088636363636364,-0.0817848484848484,-0.0006272727272727,0.0027424242424242,8.470715809988137,-1.3455,-4.232892259693307,-0.0251990118757414,-0.0264008234368821,0.0233008234368821
0.38,9.062516666666664,-4.624654545454546,-1.1090090909090908,-0.0817787878787878,-0.0006181818181818,0.0027393939393939,8.470715851703146,-1.3455,-4.232892239270335,-0.0251990092685534,-0.0264008256095388,0.0233008256095388
0.381,9.0623,-4.624727272727273,-1.1091545454545455,-0.0817727272727272,-0.0006090909090909,0.0027363636363636,8.470715893418154,-1.3455,-4.232892218847362,-0.0251990066613653,-0.0264008277821955,0.0233008277821955
0.382,9.062083333333334,-4.6248000000000005,-1.1093,-0.0817666666666666,-0.0006,0.0027333333333333,8.470715935133162,-1.3455,-4.2328921984243895,-0.0251990040541773,-0.0264008299548521,0.0233008299548521
0.383,9.061866666666669,-4.624872727272727,-1.1094454545454544,-0.081760606060606,-0.000590909090909,0.002730303030303,8.47071597684817,-1.3455,-4.232892178001417,-0.0251990014469893,-0.0264008321275088,0.0233008321275088
0.384,9.06165,-4.624945454545455,-1.109590909090909,-0.0817545454545454,-0.0005818181818181,0.0027272727272727,8.470716018563179,-1.3455,-4.232892157578443,-0.0251989988398013,-0.0264008343001655,0.0233008343001655
0.385,9.061433333333332,-4.625018181818182,-1.1097363636363635,-0.0817484848484848,-0.0005727272727272,0.0027242424242424,8.470716060278187,-1.3455,-4.232892137155471,-0.0251989962326133,-0.0264008364728222,0.0233008364728222
0.386,9.061216666666668,-4.625090909090909,-1.1098818181818182,-0.0817424242424242,-0.0005636363636363,0.0027212121212121,8.470716101993196,-1.3455,-4.232892116732498,-0.0251989936254252,-0.0264008386454789,0.0233008386454789
0.387,9.061,-4.625163636363637,-1.1100272727272726,-0.0817363636363636,-0.0005545454545454,0.0027181818181818,8.470716143708204,-1.3455,-4.232892096309525,-0.0251989910182372,-0.0264008408181356,0.0233008408181356
0.388,9.060783333333331,-4.625236363636364,-1.110172727272727,-0.081730303030303,-0.0005454545454545,0.0027151515151515,8.470716185423212,-1.3455,-4.232892075886553,-0.0251989884110492,-0.0264008429907922,0.0233008429907922
0.389,9.060566666666666,-4.625309090909092,-1.1103181818181818,-0.0817242424242424,-0.0005363636363636,0.0027121212121212,8.47071622713822,-1.3455,-4.23289205546358,-0.0251989858038612,-0.0264008451634489,0.0233008451634489
0.39,9.06035,-4.625381818181818,-1.1104636363636362,-0.0817181818181818,-0.0005272727272727,0.0027090909090909,8.470716268853229,-1.3455,-4.232892035040607,-0.0251989831966732,-0.0264008473361056,0.0233008473361056
0.391,9.060133333333331,-4.625454545454546,-1.1106090909090909,-0.0817121212121212,-0.0005181818181818,0.0027060606060606,8.470716310568237,-1.3455,-4.232892014617634,-0.0251989805894852,-0.0264008495087623,0.0233008495087623
0.392,9.059916666666666,-4.625527272727273,-1.110754545454545,-0.0817060606060606,-0.0005090909090909,0.0027030303030303,8.470716352283246,-1.3455,-4.232891994194661,-0.0251989779822971,-0.026400851681419,0.023300851681419
0.393,9.0597,-4.6256,-1.1109,-0.0817,-0.0005,0.0027,8.470716393998254,-1.3455,-4.232891973771689,-0.0251989753751091,-0.0264008538540756,0.0233008538540756
0.394,9.059772307692308,-4.6256,-1.110826153846154,-0.0817,-0.0004876923076923,0.0027,8.470716435713262,-1.3455,-4.232891953348716,-0.0251989727679211,-0.0264008560267323,0.0233008560267323
0.395,9.059844615384614,-4.6256,-1.1107523076923078,-0.0817,-0.0004753846153846,0.0027,8.47071647742827,-1.3455,-4.232891932925742,-0.0251989701607331,-0.026400858199389,0.023300858199389
0.396,9.059916923076925,-4.6256,-1.1106784615384615,-0.0817,-0.0004630769230769,0.0027,8.470716519143279,-1.3455,-4.23289191250277,-0.0251989675535451,-0.0264008603720457,0.0233008603720457
0.397,9.05998923076923,-4.6256,-1.1106046153846154,-0.0817,-0.0004507692307692,0.0027,8.470716560858287,-1.3455,-4.232891892079797,-0.0251989649463571,-0.0264008625447024,0.0233008625447024
0.398,9.060061538461538,-4.6256,-1.110530769230769,-0.0817,-0.0004384615384615,0.0027,8.470716602573296,-1.3455,-4.2328918716568245,-0.025198962339169,-0.026400864717359,0.023300864717359
0.399,9.060133846153846,-4.6256,-1.110456923076923,-0.0817,-0.0004261538461538,0.0027,8.470716644288304,-1.3455,-4.232891851233852,-0.025198959731981,-0.0264008668900157,0.0233008668900157
0.4,9.060206153846153,-4.6256,-1.110383076923077,-0.0817,-0.0004138461538461,0.0027,8.470716686003312,-1.3455,-4.232891830810879,-0.025198957124793,-0.0264008690626724,0.0233008690626724
0.401,9.06027846153846,-4.6256,-1.1103092307692308,-0.0817,-0.0004015384615384,0.0027,8.47071672771832,-1.3455,-4.232891810387906,-0.025198954517605,-0.0264008712353291,0.0233008712353291
0.402,9.06035076923077,-4.6256,-1.1102353846153847,-0.0817,-0.0003892307692307,0.0027,8.470716769433329,-1.3455,-4.232891789964933,-0.025198951910417,-0.0264008734079858,0.0233008734079858
0.403,9.060423076923076,-4.6256,-1.1101615384615384,-0.0817,-0.000376923076923,0.0027,8.470716811148337,-1.3455,-4.23289176954196,-0.025198949303229,-0.0264008755806424,0.0233008755806424
0.404,9.060495384615384,-4.6256,-1.1100876923076923,-0.0817,-0.0003646153846153,0.0027,8.470716852863346,-1.3455,-4.232891749118988,-0.0251989466960409,-0.0264008777532991,0.0233008777532991
0.405,9.060567692307693,-4.6256,-1.1100138461538462,-0.0817,-0.0003523076923076,0.0027,8.470716894578354,-1.3455,-4.232891728696015,-0.0251989440888529,-0.0264008799259558,0.0233008799259558
0.406,9.06064,-4.6256,-1.10994,-0.0817,-0.00034,0.0027,8.470716936293362,-1.3455,-4.232891708273042,-0.0251989414816649,-0.0264008820986125,0.0233008820986125
0.407,9.060712307692308,-4.6256,-1.1098661538461538,-0.0817,-0.0003276923076923,0.0027,8.47071697800837,-1.3455,-4.232891687850069,-0.0251989388744769,-0.0264008842712692,0.0233008842712692
0.408,9.060784615384614,-4.6256,-1.1097923076923075,-0.0817,-0.0003153846153846,0.0027,8.470717019723379,-1.3455,-4.232891667427096,-0.0251989362672889,-0.0264008864439259,0.0233008864439259
0.409,9.060856923076924,-4.6256,-1.1097184615384617,-0.0817,-0.0003030769230769,0.0027,8.470717061438386,-1.3455,-4.232891647004124,-0.0251989336601008,-0.0264008886165825,0.0233008886165825
0.41,9.06092923076923,-4.6256,-1.1096446153846151,-0.0817,-0.0002907692307692,0.0027,8.470717103153394,-1.3455,-4.232891626581151,-0.0251989310529128,-0.0264008907892392,0.0233008907892392
0.411,9.061001538461538,-4.6256,-1.1095707692307692,-0.0817,-0.0002784615384615,0.0027,8.470717144868402,-1.3455,-4.232891606158178,-0.0251989284457248,-0.0264008929618959,0.0233008929618959
0.412,9.061073846153846,-4.6256,-1.1094969230769232,-0.0817,-0.0002661538461538,0.0027,8.47071718658341,-1.3455,-4.232891585735205,-0.0251989258385368,-0.0264008951345526,0.0233008951345526
0.413,9.061146153846153,-4.6256,-1.1094230769230768,-0.0817,-0.0002538461538461,0.0027,8.470717228298419,-1.3455,-4.232891565312232,-0.0251989232313488,-0.0264008973072093,0.0233008973072093
0.414,9.06121846153846,-4.6256,-1.1093492307692308,-0.0817,-0.0002415384615384,0.0027,8.470717270013427,-1.3455,-4.2328915448892594,-0.0251989206241608,-0.0264008994798659,0.0233008994798659
0.415,9.06129076923077,-4.6256,-1.1092753846153849,-0.0817,-0.0002292307692307,0.0027,8.470717311728436,-1.3455,-4.232891524466287,-0.0251989180169727,-0.0264009016525226,0.0233009016525226
0.416,9.061363076923076,-4.6256,-1.1092015384615386,-0.0817,-0.000216923076923,0.0027,8.470717353443444,-1.3455,-4.232891504043314,-0.0251989154097847,-0.0264009038251793,0.0233009038251793
0.417,9.061435384615384,-4.6256,-1.1091276923076925,-0.0817,-0.0002046153846153,0.0027,8.470717395158452,-1.3455,-4.2328914836203415,-0.0251989128025967,-0.026400905997836,0.023300905997836
0.418,9.061507692307693,-4.6256,-1.1090538461538462,-0.0817,-0.0001923076923076,0.0027,8.47071743687346,-1.3455,-4.232891463197368,-0.0251989101954087,-0.0264009081704927,0.0233009081704927
0.419,9.06158,-4.6256,-1.10898,-0.0817,-0.0001799999999999,0.0027,8.470717478588469,-1.3455,-4.232891442774395,-0.0251989075882207,-0.0264009103431493,0.0233009103431494
0.42,9.061652307692308,-4.6256,-1.1089061538461538,-0.0817,-0.0001676923076923,0.0027,8.470717520303477,-1.3455,-4.232891422351423,-0.0251989049810327,-0.026400912515806,0.023300912515806
0.421,9.061724615384614,-4.6256,-1.1088323076923077,-0.0817,-0.0001553846153846,0.0027,8.470717562018486,-1.3455,-4.23289140192845,-0.0251989023738446,-0.0264009146884627,0.0233009146884627
0.422,9.061796923076924,-4.6256,-1.1087584615384616,-0.0817,-0.0001430769230769,0.0027,8.470717603733494,-1.3455,-4.232891381505477,-0.0251988997666566,-0.0264009168611194,0.0233009168611194
0.423,9.06186923076923,-4.6256,-1.1086846153846155,-0.0817,-0.0001307692307692,0.0027,8.470717645448502,-1.3455,-4.232891361082505,-0.0251988971594686,-0.0264009190337761,0.0233009190337761
0.424,9.061941538461538,-4.6256,-1.1086107692307692,-0.0817,-0.0001184615384615,0.0027,8.47071768716351,-1.3455,-4.232891340659531,-0.0251988945522806,-0.0264009212064328,0.0233009212064328
0.425,9.062013846153846,-4.6256,-1.108536923076923,-0.0817,-0.0001061538461538,0.0027,8.470717728878519,-1.3455,-4.232891320236559,-0.0251988919450926,-0.0264009233790894,0.0233009233790894
0.426,9.062086153846153,-4.6256,-1.108463076923077,-0.0817,-9.38461538461482e-05,0.0027,8.470717770593527,-1.3455,-4.232891299813586,-0.0251988893379046,-0.0264009255517461,0.0233009255517461
0.427,9.06215846153846,-4.6256,-1.108389230769231,-0.0817,-8.153846153845543e-05,0.0027,8.470717812308536,-1.3455,-4.232891279390613,-0.0251988867307165,-0.0264009277244028,0.0233009277244028
0.428,9.06223076923077,-4.6256,-1.1083153846153846,-0.0817,-6.923076923076268e-05,0.0027,8.470717854023544,-1.3455,-4.232891258967641,-0.0251988841235285,-0.0264009298970595,0.0233009298970595
0.429,9.062303076923076,-4.6256,-1.1082415384615385,-0.0817,-5.692307692306992e-05,0.0027,8.470717895738552,-1.3455,-4.232891238544668,-0.0251988815163405,-0.0264009320697162,0.0233009320697162
0.43,9.062375384615384,-4.6256,-1.1081676923076924,-0.0817,-4.461538461537717e-05,0.0027,8.47071793745356,-1.3455,-4.232891218121694,-0.0251988789091525,-0.0264009342423728,0.0233009342423728
0.431,9.06244769230769,-4.6256,-1.108093846153846,-0.0817,-3.230769230768446e-05,0.0027,8.470717979168569,-1.3455,-4.232891197698722,-0.0251988763019645,-0.0264009364150295,0.0233009364150295
0.432,9.06252,-4.6256,-1.10802,-0.0817,-1.9999999999991704e-05,0.0027,8.470718020883577,-1.3455,-4.232891177275749,-0.0251988736947765,-0.0264009385876862,0.0233009385876862
0.433,9.062592307692308,-4.6256,-1.107946153846154,-0.0817,-7.692307692298947e-06,0.0027,8.470718062598586,-1.3455,-4.2328911568527765,-0.0251988710875884,-0.0264009407603429,0.0233009407603429
0.434,9.062664615384614,-4.6256,-1.1078723076923076,-0.0817,4.61538461539381e-06,0.0027,8.470718104313594,-1.3455,-4.232891136429804,-0.0251988684804004,-0.0264009429329996,0.0233009429329996
0.435,9.062736923076924,-4.6256,-1.1077984615384615,-0.0817,1.6923076923086567e-05,0.0027,8.470718146028602,-1.3455,-4.23289111600683,-0.0251988658732124,-0.0264009451056562,0.0233009451056562
0.436,9.06280923076923,-4.6256,-1.1077246153846154,-0.0817,2.9230769230779324e-05,0.0027,8.47071818774361,-1.3455,-4.232891095583858,-0.0251988632660244,-0.0264009472783129,0.0233009472783129
0.437,9.062881538461538,-4.6256,-1.107650769230769,-0.0817,4.153846153847208e-05,0.0027,8.470718229458619,-1.3455,-4.232891075160885,-0.0251988606588364,-0.0264009494509696,0.0233009494509696
0.438,9.062953846153846,-4.6256,-1.107576923076923,-0.0817,5.384615384616484e-05,0.0027,8.470718271173627,-1.3455,-4.232891054737912,-0.0251988580516483,-0.0264009516236263,0.0233009516236263
0.439,9.063026153846153,-4.6256,-1.107503076923077,-0.0817,6.61538461538576e-05,0.0027,8.470718312888634,-1.3455,-4.23289103431494,-0.0251988554444603,-0.026400953796283,0.023300953796283
0.44,9.06309846153846,-4.6256,-1.1074292307692308,-0.0817,7.846153846155035e-05,0.0027,8.470718354603642,-1.3455,-4.232891013891967,-0.0251988528372723,-0.0264009559689397,0.0233009559689397
0.441,9.06317076923077,-4.6256,-1.1073553846153843,-0.0817,9.0769230769243e-05,0.0027,8.47071839631865,-1.3455,-4.232890993468994,-0.0251988502300843,-0.0264009581415963,0.0233009581415963
0.442,9.063243076923076,-4.6256,-1.1072815384615384,-0.0817,0.0001030769230769,0.0027,8.470718438033659,-1.3455,-4.232890973046021,-0.0251988476228963,-0.026400960314253,0.023300960314253
0.443,9.063315384615384,-4.6256,-1.1072076923076923,-0.0817,0.0001153846153846,0.0027,8.470718479748667,-1.3455,-4.232890952623048,-0.0251988450157083,-0.0264009624869097,0.0233009624869097
0.444,9.06338769230769,-4.6256,-1.1071338461538462,-0.0817,0.0001276923076923,0.0027,8.470718521463676,-1.3455,-4.232890932200076,-0.0251988424085202,-0.0264009646595664,0.0233009646595664
0.445,9.06346,-4.6256,-1.10706,-0.0817,0.00014,0.0027,8.470718563178684,-1.3455,-4.232890911777103,-0.0251988398013322,-0.0264009668322231,0.0233009668322231
0.446,9.063532307692308,-4.6256,-1.1069861538461538,-0.0817,0.0001523076923077,0.0027,8.470718604893692,-1.3455,-4.23289089135413,-0.0251988371941442,-0.0264009690048797,0.0233009690048797
0.447,9.063604615384614,-4.6256,-1.1069123076923078,-0.0817,0.0001646153846153,0.0027,8.4707186466087,-1.3455,-4.232890870931157,-0.0251988345869562,-0.0264009711775364,0.0233009711775364
0.448,9.063676923076924,-4.6256,-1.1068384615384614,-0.0817,0.000176923076923,0.0027,8.470718688323709,-1.3455,-4.232890850508184,-0.0251988319797682,-0.0264009733501931,0.0233009733501931
0.449,9.063749230769233,-4.6256,-1.1067646153846151,-0.0817,0.0001892307692307,0.0027,8.470718730038717,-1.3455,-4.232890830085212,-0.0251988293725802,-0.0264009755228498,0.0233009755228498
0.45,9.063821538461536,-4.6256,-1.1066907692307693,-0.0817,0.0002015384615384,0.0027,8.470718771753726,-1.3455,-4.232890809662239,-0.0251988267653921,-0.0264009776955065,0.0233009776955065
0.451,9.063893846153846,-4.6256,-1.106616923076923,-0.0817,0.0002138461538461,0.0027,8.470718813468734,-1.3455,-4.232890789239266,-0.0251988241582041,-0.0264009798681631,0.0233009798681631
0.452,9.063966153846152,-4.6256,-1.1065430769230769,-0.0817,0.0002261538461538,0.0027,8.470718855183742,-1.3455,-4.232890768816293,-0.0251988215510161,-0.0264009820408198,0.0233009820408198
0.453,9.06403846153846,-4.6256,-1.1064692307692308,-0.0817,0.0002384615384615,0.0027,8.47071889689875,-1.3455,-4.23289074839332,-0.0251988189438281,-0.0264009842134765,0.0233009842134765
0.454,9.06411076923077,-4.6256,-1.106395384615385,-0.0817,0.0002507692307692,0.0027,8.470718938613759,-1.3455,-4.232890727970347,-0.0251988163366401,-0.0264009863861332,0.0233009863861332
0.455,9.064183076923076,-4.6256,-1.1063215384615384,-0.0817,0.0002630769230769,0.0027,8.470718980328767,-1.3455,-4.232890707547375,-0.0251988137294521,-0.0264009885587899,0.0233009885587899
0.456,9.064255384615384,-4.6256,-1.1062476923076925,-0.0817,0.0002753846153846,0.0027,8.470719022043776,-1.3455,-4.232890687124402,-0.025198811122264,-0.0264009907314465,0.0233009907314466
0.457,9.06432769230769,-4.6256,-1.1061738461538462,-0.0817,0.0002876923076923,0.0027,8.470719063758784,-1.3455,-4.232890666701429,-0.025198808515076,-0.0264009929041032,0.0233009929041032
0.458,9.0644,-4.6256,-1.1061,-0.0817,0.0002999999999999,0.0026999999999999,8.470719105473792,-1.3455,-4.232890646278456,-0.025198805907888,-0.0264009950767599,0.0233009950767599
0.459,9.06455,-4.6256,-1.1061,-0.0817015624999999,0.0002953124999999,0.0026906249999999,8.4707191471888,-1.3455,-4.232890625855483,-0.0251988033007,-0.0264009972494166,0.0233009972494166
0.46,9.0647,-4.6256,-1.1061,-0.081703125,0.0002906249999999,0.0026812499999999,8.470719188903809,-1.3455,-4.232890605432511,-0.025198800693512,-0.0264009994220733,0.0233009994220733
0.461,9.06485,-4.6256,-1.1061,-0.0817046875,0.0002859374999999,0.0026718749999999,8.470719230618817,-1.3455,-4.232890585009538,-0.0251987980863239,-0.02640100159473,0.02330100159473
0.462,9.065,-4.6256,-1.1061,-0.08170625,0.0002812499999999,0.0026624999999999,8.470719272333826,-1.3455,-4.232890564586565,-0.0251987954791359,-0.0264010037673866,0.0233010037673866
0.463,9.06515,-4.6256,-1.1061,-0.0817078125,0.0002765624999999,0.0026531249999999,8.470719314048834,-1.3455,-4.232890544163593,-0.0251987928719479,-0.0264010059400433,0.0233010059400433
0.464,9.0653,-4.6256,-1.1061,-0.081709375,0.0002718749999999,0.0026437499999999,8.470719355763842,-1.3455,-4.232890523740619,-0.0251987902647599,-0.0264010081127,0.0233010081127
0.465,9.06545,-4.6256,-1.1061,-0.0817109375,0.0002671874999999,0.0026343749999999,8.47071939747885,-1.3455,-4.232890503317647,-0.0251987876575719,-0.0264010102853567,0.0233010102853567
0.466,9.0656,-4.6256,-1.1061,-0.0817125,0.0002624999999999,0.0026249999999999,8.470719439193859,-1.3455,-4.232890482894674,-0.0251987850503839,-0.0264010124580134,0.0233010124580134
0.467,9.06575,-4.6256,-1.1061,-0.0817140625,0.0002578124999999,0.0026156249999999,8.470719480908867,-1.3455,-4.232890462471701,-0.0251987824431958,-0.02640101463067,0.02330101463067
0.468,9.0659,-4.6256,-1.1061,-0.081715625,0.0002531249999999,0.0026062499999999,8.470719522623876,-1.3455,-4.2328904420487286,-0.0251987798360078,-0.0264010168033267,0.0233010168033267
0.469,9.06605,-4.6256,-1.1061,-0.0817171875,0.0002484374999999,0.0025968749999999,8.470719564338884,-1.3455,-4.232890421625755,-0.0251987772288198,-0.0264010189759834,0.0233010189759834
0.47,9.0662,-4.6256,-1.1061,-0.0817187499999999,0.0002437499999999,0.0025874999999999,8.47071960605389,-1.3455,-4.232890401202782,-0.0251987746216318,-0.0264010211486401,0.0233010211486401
0.471,9.06635,-4.6256,-1.1061,-0.0817203125,0.0002390624999999,0.0025781249999999,8.470719647768899,-1.3455,-4.23289038077981,-0.0251987720144438,-0.0264010233212968,0.0233010233212968
0.472,9.0665,-4.6256,-1.1061,-0.081721875,0.0002343749999999,0.0025687499999999,8.470719689483907,-1.3455,-4.232890360356837,-0.0251987694072558,-0.0264010254939534,0.0233010254939535
0.473,9.06665,-4.6256,-1.1061,-0.0817234375,0.0002296874999999,0.0025593749999999,8.470719731198916,-1.3455,-4.232890339933864,-0.0251987668000677,-0.0264010276666101,0.0233010276666101
0.474,9.0668,-4.6256,-1.1061,-0.0817249999999999,0.0002249999999999,0.0025499999999999,8.470719772913924,-1.3455,-4.232890319510892,-0.0251987641928797,-0.0264010298392668,0.0233010298392668
0.475,9.06695,-4.6256,-1.1061,-0.0817265625,0.0002203124999999,0.0025406249999999,8.470719814628932,-1.3455,-4.232890299087918,-0.0251987615856917,-0.0264010320119235,0.0233010320119235
0.476,9.0671,-4.6256,-1.1061,-0.081728125,0.0002156249999999,0.0025312499999999,8.47071985634394,-1.3455,-4.232890278664946,-0.0251987589785037,-0.0264010341845802,0.0233010341845802
0.477,9.06725,-4.6256,-1.1061,-0.0817296875,0.0002109374999999,0.0025218749999999,8.470719898058949,-1.3455,-4.232890258241973,-0.0251987563713157,-0.0264010363572369,0.0233010363572369
0.478,9.0674,-4.6256,-1.1061,-0.0817312499999999,0.0002062499999999,0.0025124999999999,8.470719939773957,-1.3455,-4.232890237819,-0.0251987537641277,-0.0264010385298935,0.0233010385298935
0.479,9.06755,-4.6256,-1.1061,-0.0817328125,0.0002015624999999,0.0025031249999999,8.470719981488966,-1.3455,-4.232890217396028,-0.0251987511569396,-0.0264010407025502,0.0233010407025502
0.48,9.0677,-4.6256,-1.1061,-0.081734375,0.0001968749999999,0.0024937499999999,8.470720023203974,-1.3455,-4.232890196973055,-0.0251987485497516,-0.0264010428752069,0.0233010428752069
0.481,9.06785,-4.6256,-1.1061,-0.0817359375,0.0001921874999999,0.0024843749999999,8.470720064918982,-1.3455,-4.2328901765500815,-0.0251987459425636,-0.0264010450478636,0.0233010450478636
0.482,9.068,-4.6256,-1.1061,-0.0817375,0.0001874999999999,0.0024749999999999,8.47072010663399,-1.3455,-4.232890156127109,-0.0251987433353756,-0.0264010472205203,0.0233010472205203
0.483,9.06815,-4.6256,-1.1061,-0.0817390625,0.0001828124999999,0.0024656249999999,8.470720148348999,-1.3455,-4.232890135704136,-0.0251987407281876,-0.0264010493931769,0.0233010493931769
0.484,9.0683,-4.6256,-1.1061,-0.081740625,0.0001781249999999,0.0024562499999999,8.470720190064007,-1.3455,-4.232890115281164,-0.0251987381209995,-0.0264010515658336,0.0233010515658336
0.485,9.06845,-4.6256,-1.1061,-0.0817421875,0.0001734374999999,0.0024468749999999,8.470720231779016,-1.3455,-4.232890094858191,-0.0251987355138115,-0.0264010537384903,0.0233010537384903
0.486,9.0686,-4.6256,-1.1061,-0.08174375,0.0001687499999999,0.0024374999999999,8.470720273494024,-1.3455,-4.232890074435217,-0.0251987329066235,-0.026401055911147,0.023301055911147
0.487,9.06875,-4.6256,-1.1061,-0.0817453125,0.0001640624999999,0.0024281249999999,8.470720315209032,-1.3455,-4.232890054012245,-0.0251987302994355,-0.0264010580838037,0.0233010580838037
0.488,9.0689,-4.6256,-1.1061,-0.081746875,0.0001593749999999,0.0024187499999999,8.47072035692404,-1.3455,-4.232890033589272,-0.0251987276922475,-0.0264010602564603,0.0233010602564603
0.489,9.06905,-4.6256,-1.1061,-0.0817484374999999,0.0001546874999999,0.0024093749999999,8.470720398639049,-1.3455,-4.232890013166299,-0.0251987250850595,-0.026401062429117,0.023301062429117
0.49,9.0692,-4.6256,-1.1061,-0.08175,0.0001499999999999,0.0023999999999999,8.470720440354057,-1.3455,-4.232889992743327,-0.0251987224778714,-0.0264010646017737,0.0233010646017737
0.491,9.06935,-4.6256,-1.1061,-0.0817515625,0.0001453124999999,0.0023906249999999,8.470720482069066,-1.3455,-4.232889972320354,-0.0251987198706834,-0.0264010667744304,0.0233010667744304
0.492,9.0695,-4.6256,-1.1061,-0.081753125,0.0001406249999999,0.0023812499999999,8.470720523784074,-1.3455,-4.232889951897381,-0.0251987172634954,-0.0264010689470871,0.0233010689470871
0.493,9.06965,-4.6256,-1.1061,-0.0817546874999999,0.0001359374999999,0.0023718749999999,8.470720565499082,-1.3455,-4.232889931474408,-0.0251987146563074,-0.0264010711197438,0.0233010711197438
0.494,9.0698,-4.6256,-1.1061,-0.08175625,0.0001312499999999,0.0023624999999999,8.47072060721409,-1.3455,-4.232889911051435,-0.0251987120491194,-0.0264010732924004,0.0233010732924004
0.495,9.06995,-4.6256,-1.1061,-0.0817578125,0.0001265624999999,0.0023531249999999,8.470720648929099,-1.3455,-4.232889890628463,-0.0251987094419314,-0.0264010754650571,0.0233010754650571
0.496,9.0701,-4.6256,-1.1061,-0.081759375,0.0001218749999999,0.0023437499999999,8.470720690644107,-1.3455,-4.23288987020549,-0.0251987068347433,-0.0264010776377138,0.0233010776377138
0.497,9.07025,-4.6256,-1.1061,-0.0817609375,0.0001171874999999,0.0023343749999999,8.470720732359116,-1.3455,-4.232889849782517,-0.0251987042275553,-0.0264010798103705,0.0233010798103705
0.498,9.0704,-4.6256,-1.1061,-0.0817625,0.0001124999999999,0.0023249999999999,8.470720774074124,-1.3455,-4.232889829359544,-0.0251987016203673,-0.0264010819830272,0.0233010819830272
0.499,9.07055,-4.6256,-1.1061,-0.0817640625,0.0001078124999999,0.0023156249999999,8.470720815789132,-1.3455,-4.232889808936571,-0.0251986990131793,-0.0264010841556838,0.0233010841556838
0.5,9.0707,-4.6256,-1.1061,-0.081765625,0.0001031249999999,0.0023062499999999,8.470720857504139,-1.3455,-4.232889788513599,-0.0251986964059913,-0.0264010863283405,0.0233010863283405
0.501,9.07085,-4.6256,-1.1061,-0.0817671875,9.843749999999272e-05,0.0022968749999999,8.470720899219147,-1.3455,-4.232889768090626,-0.0251986937988033,-0.0264010885009972,0.0233010885009972
0.502,9.071,-4.6256,-1.1061,-0.08176875,9.374999999999272e-05,0.0022874999999999,8.470720940934156,-1.3455,-4.232889747667653,-0.0251986911916152,-0.0264010906736539,0.0233010906736539
0.503,9.07115,-4.6256,-1.1061,-0.0817703125,8.906249999999271e-05,0.0022781249999999,8.470720982649164,-1.3455,-4.23288972724468,-0.0251986885844272,-0.0264010928463106,0.0233010928463106
0.504,9.0713,-4.6256,-1.1061,-0.081771875,8.437499999999271e-05,0.0022687499999999,8.470721024364172,-1.3455,-4.232889706821707,-0.0251986859772392,-0.0264010950189672,0.0233010950189672
0.505,9.07145,-4.6256,-1.1061,-0.0817734375,7.968749999999271e-05,0.0022593749999999,8.47072106607918,-1.3455,-4.232889686398734,-0.0251986833700512,-0.0264010971916239,0.0233010971916239
0.506,9.0716,-4.6256,-1.1061,-0.081775,7.499999999999272e-05,0.0022499999999999,8.470721107794189,-1.3455,-4.232889665975762,-0.0251986807628632,-0.0264010993642806,0.0233010993642806
0.507,9.07175,-4.6256,-1.1061,-0.0817765625,7.031249999999272e-05,0.0022406249999999,8.470721149509197,-1.3455,-4.232889645552789,-0.0251986781556751,-0.0264011015369373,0.0233011015369373
0.508,9.0719,-4.6256,-1.1061,-0.081778125,6.562499999999272e-05,0.0022312499999999,8.470721191224206,-1.3455,-4.2328896251298165,-0.0251986755484871,-0.026401103709594,0.023301103709594
0.509,9.07205,-4.6256,-1.1061,-0.0817796875,6.093749999999269e-05,0.0022218749999999,8.470721232939214,-1.3455,-4.232889604706843,-0.0251986729412991,-0.0264011058822506,0.0233011058822507
0.51,9.0722,-4.6256,-1.1061,-0.08178125,5.624999999999269e-05,0.0022124999999999,8.470721274654222,-1.3455,-4.23288958428387,-0.0251986703341111,-0.0264011080549073,0.0233011080549073
0.511,9.07235,-4.6256,-1.1061,-0.0817828125,5.1562499999992695e-05,0.0022031249999999,8.47072131636923,-1.3455,-4.232889563860898,-0.0251986677269231,-0.026401110227564,0.023301110227564
0.512,9.0725,-4.6256,-1.1061,-0.081784375,4.687499999999272e-05,0.0021937499999999,8.470721358084239,-1.3455,-4.232889543437925,-0.0251986651197351,-0.0264011124002207,0.0233011124002207
0.513,9.07265,-4.6256,-1.1061,-0.0817859375,4.21874999999927e-05,0.0021843749999999,8.470721399799247,-1.3455,-4.232889523014952,-0.025198662512547,-0.0264011145728774,0.0233011145728774
0.514,9.0728,-4.6256,-1.1061,-0.0817875,3.7499999999992726e-05,0.0021749999999999,8.470721441514256,-1.3455,-4.23288950259198,-0.025198659905359,-0.0264011167455341,0.0233011167455341
0.515,9.07295,-4.6256,-1.1061,-0.0817890625,3.28124999999927e-05,0.0021656249999999,8.470721483229264,-1.3455,-4.232889482169006,-0.025198657298171,-0.0264011189181907,0.0233011189181907
0.516,9.0731,-4.6256,-1.1061,-0.081790625,2.8124999999992728e-05,0.0021562499999999,8.470721524944272,-1.3455,-4.2328894617460335,-0.025198654690983,-0.0264011210908474,0.0233011210908474
0.517,9.07325,-4.6256,-1.1061,-0.0817921875,2.3437499999992702e-05,0.0021468749999999,8.47072156665928,-1.3455,-4.232889441323061,-0.025198652083795,-0.0264011232635041,0.0233011232635041
0.518,9.0734,-4.6256,-1.1061,-0.08179375,1.874999999999273e-05,0.0021374999999999,8.470721608374289,-1.3455,-4.232889420900088,-0.025198649476607,-0.0264011254361608,0.0233011254361608
0.519,9.07355,-4.6256,-1.1061,-0.0817953125,1.4062499999992703e-05,0.0021281249999999,8.470721650089297,-1.3455,-4.232889400477116,-0.0251986468694189,-0.0264011276088175,0.0233011276088175
0.52,9.0737,-4.6256,-1.1061,-0.081796875,9.374999999992732e-06,0.0021187499999999,8.470721691804306,-1.3455,-4.232889380054142,-0.0251986442622309,-0.0264011297814741,0.0233011297814741
0.521,9.07385,-4.6256,-1.1061,-0.0817984375,4.687499999992708e-06,0.0021093749999999,8.470721733519314,-1.3455,-4.232889359631169,-0.0251986416550429,-0.0264011319541308,0.0233011319541308
0.522,9.074,-4.6256,-1.1060999999999996,-0.0818,-9.714451465470113e-18,0.0021,8.470721775234322,-1.3455,-4.232889339208197,-0.0251986390478549,-0.0264011341267875,0.0233011341267875
0.523,9.074,-4.625675,-1.1058765624999998,-0.0818015625,-6.250000000009715e-06,0.0021171875,8.47072181694933,-1.3455,-4.232889318785224,-0.0251986364406669,-0.0264011362994442,0.0233011362994442
0.524,9.074,-4.625750000000001,-1.1056531249999997,-0.081803125,-1.2500000000009716e-05,0.002134375,8.470721858664339,-1.3455,-4.232889298362252,-0.0251986338334789,-0.0264011384721009,0.0233011384721009
0.525,9.074,-4.625825000000001,-1.1054296874999998,-0.0818046875,-1.875000000000972e-05,0.0021515625,8.470721900379347,-1.3455,-4.232889277939279,-0.0251986312262908,-0.0264011406447575,0.0233011406447576
0.526,9.074,-4.625900000000001,-1.1052062499999995,-0.08180625,-2.500000000000972e-05,0.00216875,8.470721942094356,-1.3455,-4.232889257516305,-0.0251986286191028,-0.0264011428174142,0.0233011428174142
0.527,9.074,-4.625975,-1.1049828124999996,-0.0818078125,-3.125000000000972e-05,0.0021859375,8.470721983809364,-1.3455,-4.232889237093333,-0.0251986260119148,-0.0264011449900709,0.0233011449900709
0.528,9.074,-4.62605,-1.1047593749999998,-0.081809375,-3.750000000000972e-05,0.002203125,8.470722025524372,-1.3455,-4.23288921667036,-0.0251986234047268,-0.0264011471627276,0.0233011471627276
0.529,9.074,-4.626125,-1.1045359374999997,-0.0818109375,-4.375000000000972e-05,0.0022203125,8.47072206723938,-1.3455,-4.232889196247387,-0.0251986207975388,-0.0264011493353843,0.0233011493353843
0.53,9.074,-4.626200000000001,-1.1043124999999998,-0.0818125,-5.000000000000972e-05,0.0022375,8.470722108954387,-1.3455,-4.232889175824415,-0.0251986181903507,-0.026401151508041,0.023301151508041
0.531,9.074,-4.626275000000001,-1.1040890624999995,-0.0818140625,-5.625000000000972e-05,0.0022546875,8.470722150669395,-1.3455,-4.232889155401442,-0.0251986155831627,-0.0264011536806976,0.0233011536806976
0.532,9.074,-4.62635,-1.1038656249999996,-0.081815625,-6.250000000000972e-05,0.002271875,8.470722192384404,-1.3455,-4.2328891349784685,-0.0251986129759747,-0.0264011558533543,0.0233011558533543
0.533,9.074,-4.626425,-1.1036421874999998,-0.0818171875,-6.875000000000972e-05,0.0022890625,8.470722234099412,-1.3455,-4.232889114555496,-0.0251986103687867,-0.026401158026011,0.023301158026011
0.534,9.074,-4.6265,-1.1034187499999997,-0.08181875,-7.500000000000972e-05,0.00230625,8.47072227581442,-1.3455,-4.232889094132523,-0.0251986077615987,-0.0264011601986677,0.0233011601986677
0.535,9.074,-4.626575000000001,-1.1031953124999998,-0.0818203125,-8.125000000000973e-05,0.0023234375,8.470722317529429,-1.3455,-4.232889073709551,-0.0251986051544107,-0.0264011623713244,0.0233011623713244
0.536,9.074,-4.626650000000001,-1.1029718749999995,-0.081821875,-8.750000000000973e-05,0.002340625,8.470722359244437,-1.3455,-4.232889053286578,-0.0251986025472226,-0.026401164543981,0.023301164543981
0.537,9.074,-4.626725,-1.1027484374999998,-0.0818234375,-9.375000000000972e-05,0.0023578125,8.470722400959446,-1.3455,-4.232889032863604,-0.0251985999400346,-0.0264011667166377,0.0233011667166377
0.538,9.074,-4.6268,-1.1025249999999998,-0.081825,-0.0001,0.002375,8.470722442674454,-1.3455,-4.232889012440632,-0.0251985973328466,-0.0264011688892944,0.0233011688892944
0.539,9.074,-4.626875,-1.1023015624999997,-0.0818265625,-0.00010625,0.0023921875,8.470722484389462,-1.3455,-4.232888992017659,-0.0251985947256586,-0.0264011710619511,0.0233011710619511
0.54,9.074,-4.626950000000001,-1.1020781249999998,-0.081828125,-0.0001125,0.002409375,8.47072252610447,-1.3455,-4.232888971594687,-0.0251985921184706,-0.0264011732346078,0.0233011732346078
0.541,9.074,-4.627025000000001,-1.1018546874999997,-0.0818296875,-0.00011875,0.0024265625,8.470722567819479,-1.3455,-4.232888951171714,-0.0251985895112826,-0.0264011754072644,0.0233011754072644
0.542,9.074,-4.6271,-1.1016312499999998,-0.08183125,-0.000125,0.00244375,8.470722609534487,-1.3455,-4.232888930748741,-0.0251985869040945,-0.0264011775799211,0.0233011775799211
0.543,9.074,-4.627175,-1.1014078124999995,-0.0818328125,-0.00013125,0.0024609375,8.470722651249496,-1.3455,-4.232888910325768,-0.0251985842969065,-0.0264011797525778,0.0233011797525778
0.544,9.074,-4.62725,-1.1011843749999997,-0.081834375,-0.0001375,0.002478125,8.470722692964504,-1.3455,-4.232888889902795,-0.0251985816897185,-0.0264011819252345,0.0233011819252345
0.545,9.074,-4.627325,-1.1009609374999998,-0.0818359375,-0.00014375,0.0024953125,8.470722734679512,-1.3455,-4.232888869479822,-0.0251985790825305,-0.0264011840978912,0.0233011840978912
0.546,9.074,-4.627400000000001,-1.1007374999999997,-0.0818375,-0.00015,0.0025125,8.47072277639452,-1.3455,-4.23288884905685,-0.0251985764753425,-0.0264011862705479,0.0233011862705479
0.547,9.074,-4.627475,-1.1005140624999998,-0.0818390625,-0.00015625,0.0025296875,8.470722818109529,-1.3455,-4.232888828633877,-0.0251985738681545,-0.0264011884432045,0.0233011884432045
0.548,9.074,-4.62755,-1.1002906249999995,-0.081840625,-0.0001625,0.002546875,8.470722859824537,-1.3455,-4.232888808210904,-0.0251985712609664,-0.0264011906158612,0.0233011906158612
0.549,9.074,-4.627625,-1.1000671874999997,-0.0818421875,-0.00016875,0.0025640625,8.470722901539546,-1.3455,-4.232888787787931,-0.0251985686537784,-0.0264011927885179,0.0233011927885179
0.55,9.074,-4.6277,-1.0998437499999998,-0.08184375,-0.000175,0.00258125,8.470722943254554,-1.3455,-4.232888767364958,-0.0251985660465904,-0.0264011949611746,0.0233011949611746
0.551,9.074,-4.627775000000001,-1.0996203124999997,-0.0818453125,-0.00018125,0.0025984375,8.470722984969562,-1.3455,-4.232888746941986,-0.0251985634394024,-0.0264011971338313,0.0233011971338313
0.552,9.074,-4.6278500000000005,-1.0993968749999998,-0.081846875,-0.0001875,0.002615625,8.47072302668457,-1.3455,-4.232888726519013,-0.0251985608322144,-0.0264011993064879,0.0233011993064879
0.553,9.074,-4.627925,-1.0991734374999995,-0.0818484375,-0.00019375,0.0026328125,8.470723068399579,-1.3455,-4.23288870609604,-0.0251985582250264,-0.0264012014791446,0.0233012014791446
0.554,9.074,-4.628,-1.0989499999999996,-0.08185,-0.0002,0.00265,8.470723110114587,-1.3455,-4.232888685673068,-0.0251985556178383,-0.0264012036518013,0.0233012036518013
0.555,9.074,-4.628075,-1.0987265624999998,-0.0818515625,-0.00020625,0.0026671875,8.470723151829596,-1.3455,-4.232888665250094,-0.0251985530106503,-0.026401205824458,0.023301205824458
0.556,9.074,-4.628150000000001,-1.0985031249999997,-0.081853125,-0.0002125,0.002684375,8.470723193544604,-1.3455,-4.2328886448271215,-0.0251985504034623,-0.0264012079971147,0.0233012079971147
0.557,9.074,-4.6282250000000005,-1.0982796874999998,-0.0818546875,-0.00021875,0.0027015625,8.470723235259612,-1.3455,-4.232888624404149,-0.0251985477962743,-0.0264012101697713,0.0233012101697713
0.558,9.074,-4.6283,-1.0980562499999995,-0.08185625,-0.000225,0.00271875,8.47072327697462,-1.3455,-4.232888603981176,-0.0251985451890863,-0.026401212342428,0.023301212342428
0.559,9.074,-4.628375,-1.0978328124999996,-0.0818578125,-0.00023125,0.0027359375,8.470723318689629,-1.3455,-4.232888583558204,-0.0251985425818982,-0.0264012145150847,0.0233012145150847
0.56,9.074,-4.62845,-1.0976093749999998,-0.081859375,-0.0002375,0.002753125,8.470723360404637,-1.3455,-4.23288856313523,-0.0251985399747102,-0.0264012166877414,0.0233012166877414
0.561,9.074,-4.628525,-1.0973859374999997,-0.0818609375,-0.00024375,0.0027703125,8.470723402119644,-1.3455,-4.232888542712257,-0.0251985373675222,-0.0264012188603981,0.0233012188603981
0.562,9.074,-4.6286000000000005,-1.0971624999999998,-0.0818625,-0.00025,0.0027875,8.470723443834652,-1.3455,-4.232888522289285,-0.0251985347603342,-0.0264012210330547,0.0233012210330548
0.5630000000000001,9.074,-4.628675,-1.0969390624999995,-0.0818640625,-0.00025625,0.0028046875,8.47072348554966,-1.3455,-4.232888501866312,-0.0251985321531462,-0.0264012232057114,0.0233012232057114
0.5640000000000001,9.074,-4.62875,-1.096715625,-0.081865625,-0.0002625,0.002821875,8.470723527264669,-1.3455,-4.232888481443339,-0.0251985295459582,-0.0264012253783681,0.0233012253783681
0.5650000000000001,9.074,-4.628825,-1.0964921874999998,-0.0818671875,-0.00026875,0.0028390625,8.470723568979677,-1.3455,-4.232888461020367,-0.0251985269387701,-0.0264012275510248,0.0233012275510248
0.5660000000000001,9.074,-4.6289,-1.0962687499999997,-0.08186875,-0.000275,0.00285625,8.470723610694685,-1.3455,-4.232888440597393,-0.0251985243315821,-0.0264012297236815,0.0233012297236815
0.5670000000000001,9.074,-4.6289750000000005,-1.0960453124999998,-0.0818703125,-0.00028125,0.0028734375,8.470723652409694,-1.3455,-4.232888420174421,-0.0251985217243941,-0.0264012318963382,0.0233012318963382
0.5680000000000001,9.074,-4.62905,-1.0958218749999995,-0.081871875,-0.0002875,0.002890625,8.470723694124702,-1.3455,-4.232888399751448,-0.0251985191172061,-0.0264012340689948,0.0233012340689948
0.5690000000000001,9.074,-4.629125,-1.0955984375,-0.0818734375,-0.00029375,0.0029078125,8.47072373583971,-1.3455,-4.232888379328475,-0.0251985165100181,-0.0264012362416515,0.0233012362416515
0.5700000000000001,9.074,-4.6292,-1.0953749999999998,-0.081875,-0.0003,0.002925,8.470723777554719,-1.3455,-4.232888358905503,-0.0251985139028301,-0.0264012384143082,0.0233012384143082
0.5710000000000001,9.074,-4.629275,-1.0951515624999997,-0.0818765625,-0.00030625,0.0029421875,8.470723819269727,-1.3455,-4.23288833848253,-0.025198511295642,-0.0264012405869649,0.0233012405869649
0.5720000000000001,9.074,-4.6293500000000005,-1.0949281249999998,-0.081878125,-0.0003125,0.002959375,8.470723860984736,-1.3455,-4.2328883180595565,-0.025198508688454,-0.0264012427596216,0.0233012427596216
