Time,Sensor ID,Accel X (m/s^2),Accel Y (m/s^2),Accel Z (m/s^2),Gyro X (rad/s),Gyro Y (rad/s),Gyro Z (rad/s)
0.0,1.0,8.1738,-3.371,-3.6871,-0.033,-0.0286,0.0257
0.001,1.0,8.173763909774436,-3.3709285714285713,-3.6869917293233083,-0.03299398496240602,-0.02858796992481203,0.02570300751879699
0.002,1.0,8.173727819548873,-3.370857142857143,-3.6868834586466166,-0.03298796992481203,-0.028575939849624064,0.025706015037593986
0.003,1.0,8.17369172932331,-3.3707857142857143,-3.686775187969925,-0.03298195488721805,-0.028563909774436094,0.025709022556390976
0.004,1.0,8.173655639097744,-3.3707142857142856,-3.686666917293233,-0.03297593984962406,-0.028551879699248123,0.02571203007518797
0.005,1.0,8.17361954887218,-3.3706428571428573,-3.6865586466165414,-0.03296992481203008,-0.028539849624060157,0.02571503759398496
0.006,1.0,8.173583458646617,-3.3705714285714286,-3.6864503759398497,-0.03296390977443609,-0.028527819548872187,0.025718045112781956
0.007,1.0,8.173547368421053,-3.3705,-3.686342105263158,-0.03295789473684211,-0.028515789473684217,0.025721052631578947
0.008,1.0,8.17351127819549,-3.3704285714285716,-3.6862338345864663,-0.03295187969924813,-0.028503759398496246,0.025724060150375937
0.009000000000000001,1.0,8.173475187969926,-3.370357142857143,-3.6861255639097745,-0.03294586466165414,-0.02849172932330828,0.02572706766917293
0.01,1.0,8.17343909774436,-3.3702857142857146,-3.686017293233083,-0.03293984962406016,-0.02847969924812031,0.025730075187969922
0.011,1.0,8.173403007518797,-3.370214285714286,-3.685909022556391,-0.03293383458646617,-0.02846766917293234,0.025733082706766917
0.012,1.0,8.173366917293233,-3.370142857142857,-3.6858007518796994,-0.03292781954887219,-0.028455639097744373,0.025736090225563907
0.013000000000000001,1.0,8.17333082706767,-3.370071428571429,-3.6856924812030076,-0.0329218045112782,-0.028443609022556403,0.025739097744360902
0.014,1.0,8.173294736842106,-3.37,-3.685584210526316,-0.03291578947368422,-0.028431578947368433,0.025742105263157893
0.015,1.0,8.173258646616542,-3.3699285714285714,-3.685475939849624,-0.032909774436090236,-0.028419548872180466,0.025745112781954883
0.016,1.0,8.173222556390977,-3.369857142857143,-3.6853676691729325,-0.03290375939849625,-0.028407518796992496,0.025748120300751878
0.017,1.0,8.173186466165413,-3.3697857142857144,-3.6852593984962407,-0.032897744360902266,-0.028395488721804526,0.02575112781954887
0.018000000000000002,1.0,8.17315037593985,-3.3697142857142857,-3.685151127819549,-0.03289172932330828,-0.02838345864661656,0.025754135338345863
0.019,1.0,8.173114285714286,-3.3696428571428574,-3.6850428571428573,-0.032885714285714296,-0.02837142857142859,0.025757142857142853
0.02,1.0,8.173078195488722,-3.3695714285714287,-3.6849345864661656,-0.032879699248120314,-0.02835939849624062,0.025760150375939844
0.021,1.0,8.173042105263159,-3.3695,-3.684826315789474,-0.032873684210526326,-0.02834736842105265,0.02576315789473684
0.022,1.0,8.173006015037593,-3.3694285714285717,-3.684718045112782,-0.032867669172932344,-0.028335338345864682,0.02576616541353383
0.023,1.0,8.17296992481203,-3.369357142857143,-3.6846097744360904,-0.032861654135338356,-0.028323308270676712,0.025769172932330824
0.024,1.0,8.172933834586466,-3.369285714285714,-3.6845015037593987,-0.032855639097744374,-0.028311278195488742,0.025772180451127814
0.025,1.0,8.172897744360903,-3.369214285714286,-3.684393233082707,-0.032849624060150386,-0.028299248120300775,0.02577518796992481
0.026000000000000002,1.0,8.172861654135339,-3.369142857142857,-3.684284962406015,-0.032843609022556404,-0.028287218045112805,0.0257781954887218
0.027,1.0,8.172825563909775,-3.3690714285714285,-3.6841766917293235,-0.03283759398496242,-0.028275187969924835,0.02578120300751879
0.028,1.0,8.17278947368421,-3.369,-3.6840684210526318,-0.032831578947368434,-0.02826315789473687,0.025784210526315784
0.029,1.0,8.172753383458646,-3.3689285714285715,-3.68396015037594,-0.03282556390977445,-0.0282511278195489,0.025787218045112775
0.03,1.0,8.172717293233083,-3.368857142857143,-3.6838518796992483,-0.032819548872180464,-0.028239097744360928,0.02579022556390977
0.031,1.0,8.172681203007519,-3.3687857142857145,-3.6837436090225566,-0.03281353383458648,-0.02822706766917296,0.02579323308270676
0.032,1.0,8.172645112781955,-3.3687142857142858,-3.683635338345865,-0.032807518796992494,-0.02821503759398499,0.025796240601503755
0.033,1.0,8.172609022556392,-3.3686428571428575,-3.683527067669173,-0.03280150375939851,-0.02820300751879702,0.025799248120300745
0.034,1.0,8.172572932330826,-3.3685714285714288,-3.6834187969924814,-0.03279548872180453,-0.02819097744360905,0.025802255639097736
0.035,1.0,8.172536842105263,-3.3685,-3.6833105263157897,-0.03278947368421054,-0.028178947368421085,0.02580526315789473
0.036000000000000004,1.0,8.1725007518797,-3.3684285714285718,-3.683202255639098,-0.03278345864661656,-0.028166917293233115,0.02580827067669172
0.037,1.0,8.172464661654136,-3.368357142857143,-3.6830939849624063,-0.03277744360902257,-0.028154887218045144,0.025811278195488715
0.038,1.0,8.172428571428572,-3.3682857142857143,-3.6829857142857145,-0.03277142857142859,-0.028142857142857178,0.025814285714285706
0.039,1.0,8.172392481203008,-3.368214285714286,-3.682877443609023,-0.0327654135338346,-0.028130827067669208,0.0258172932330827
0.04,1.0,8.172356390977443,-3.3681428571428573,-3.682769172932331,-0.03275939849624062,-0.028118796992481238,0.02582030075187969
0.041,1.0,8.17232030075188,-3.3680714285714286,-3.6826609022556394,-0.03275338345864664,-0.02810676691729327,0.025823308270676682
0.042,1.0,8.172284210526316,-3.3680000000000003,-3.6825526315789476,-0.03274736842105265,-0.0280947368421053,0.025826315789473676
0.043000000000000003,1.0,8.172248120300752,-3.3679285714285716,-3.682444360902256,-0.03274135338345867,-0.02808270676691733,0.025829323308270667
0.044,1.0,8.172212030075189,-3.367857142857143,-3.682336090225564,-0.03273533834586468,-0.028070676691729364,0.02583233082706766
0.045,1.0,8.172175939849625,-3.3677857142857146,-3.6822278195488725,-0.0327293233082707,-0.028058646616541394,0.025835338345864652
0.046,1.0,8.17213984962406,-3.367714285714286,-3.6821195488721807,-0.03272330827067671,-0.028046616541353424,0.025838345864661647
0.047,1.0,8.172103759398496,-3.367642857142857,-3.682011278195489,-0.03271729323308273,-0.028034586466165454,0.025841353383458637
0.048,1.0,8.172067669172932,-3.367571428571429,-3.6819030075187973,-0.03271127819548875,-0.028022556390977487,0.025844360902255628
0.049,1.0,8.172031578947369,-3.3675,-3.6817947368421056,-0.03270526315789476,-0.028010526315789517,0.025847368421052622
0.05,1.0,8.171995488721805,-3.367428571428572,-3.681686466165414,-0.032699248120300776,-0.027998496240601547,0.025850375939849613
0.051000000000000004,1.0,8.171959398496242,-3.367357142857143,-3.681578195488722,-0.03269323308270679,-0.02798646616541358,0.025853383458646607
0.052000000000000005,1.0,8.171923308270676,-3.3672857142857144,-3.6814699248120304,-0.032687218045112806,-0.02797443609022561,0.025856390977443598
0.053,1.0,8.171887218045113,-3.367214285714286,-3.6813616541353387,-0.03268120300751882,-0.02796240601503764,0.025859398496240592
0.054,1.0,8.171851127819549,-3.3671428571428574,-3.681253383458647,-0.032675187969924836,-0.027950375939849673,0.025862406015037583
0.055,1.0,8.171815037593985,-3.3670714285714287,-3.681145112781955,-0.032669172932330855,-0.027938345864661703,0.025865413533834574
0.056,1.0,8.171778947368422,-3.3670000000000004,-3.6810368421052635,-0.032663157894736866,-0.027926315789473733,0.02586842105263157
0.057,1.0,8.171742857142858,-3.3669285714285717,-3.6809285714285718,-0.032657142857142885,-0.027914285714285766,0.02587142857142856
0.058,1.0,8.171706766917293,-3.366857142857143,-3.68082030075188,-0.032651127819548896,-0.027902255639097796,0.025874436090225553
0.059000000000000004,1.0,8.171670676691729,-3.3667857142857147,-3.6807120300751883,-0.032645112781954914,-0.027890225563909826,0.025877443609022544
0.06,1.0,8.171634586466165,-3.366714285714286,-3.6806037593984966,-0.032639097744360926,-0.027878195488721856,0.02588045112781954
0.061,1.0,8.171598496240602,-3.3666428571428573,-3.680495488721805,-0.032633082706766944,-0.02786616541353389,0.02588345864661653
0.062,1.0,8.171562406015038,-3.366571428571429,-3.680387218045113,-0.03262706766917296,-0.02785413533834592,0.02588646616541352
0.063,1.0,8.171526315789475,-3.3665000000000003,-3.6802789473684214,-0.032621052631578974,-0.02784210526315795,0.025889473684210514
0.064,1.0,8.171490225563911,-3.3664285714285715,-3.6801706766917297,-0.03261503759398499,-0.027830075187969983,0.025892481203007505
0.065,1.0,8.171454135338346,-3.3663571428571433,-3.680062406015038,-0.032609022556391004,-0.027818045112782012,0.0258954887218045
0.066,1.0,8.171418045112782,-3.3662857142857145,-3.6799541353383463,-0.03260300751879702,-0.027806015037594042,0.02589849624060149
0.067,1.0,8.171381954887218,-3.366214285714286,-3.6798458646616545,-0.03259699248120304,-0.027793984962406076,0.02590150375939848
0.068,1.0,8.171345864661655,-3.3661428571428575,-3.679737593984963,-0.03259097744360905,-0.027781954887218106,0.025904511278195475
0.069,1.0,8.171309774436091,-3.366071428571429,-3.679629323308271,-0.03258496240601507,-0.027769924812030135,0.025907518796992466
0.07,1.0,8.171273684210528,-3.3660000000000005,-3.6795210526315794,-0.03257894736842108,-0.02775789473684217,0.02591052631578946
0.07100000000000001,1.0,8.171237593984962,-3.365928571428572,-3.6794127819548876,-0.0325729323308271,-0.0277458646616542,0.02591353383458645
0.07200000000000001,1.0,8.171201503759399,-3.365857142857143,-3.679304511278196,-0.03256691729323311,-0.02773383458646623,0.025916541353383445
0.073,1.0,8.171165413533835,-3.365785714285715,-3.679196240601504,-0.03256090225563913,-0.02772180451127826,0.025919548872180436
0.074,1.0,8.171129323308271,-3.365714285714286,-3.6790879699248125,-0.03255488721804515,-0.027709774436090292,0.025922556390977427
0.075,1.0,8.171093233082708,-3.3656428571428574,-3.6789796992481207,-0.03254887218045116,-0.027697744360902322,0.02592556390977442
0.076,1.0,8.171057142857144,-3.365571428571429,-3.678871428571429,-0.03254285714285718,-0.02768571428571435,0.025928571428571412
0.077,1.0,8.171021052631579,-3.3655000000000004,-3.6787631578947373,-0.03253684210526319,-0.027673684210526385,0.025931578947368406
0.078,1.0,8.170984962406015,-3.3654285714285717,-3.6786548872180456,-0.03253082706766921,-0.027661654135338415,0.025934586466165397
0.079,1.0,8.170948872180452,-3.3653571428571434,-3.678546616541354,-0.03252481203007522,-0.027649624060150445,0.02593759398496239
0.08,1.0,8.170912781954888,-3.3652857142857147,-3.678438345864662,-0.03251879699248124,-0.027637593984962478,0.025940601503759382
0.081,1.0,8.170876691729324,-3.365214285714286,-3.6783300751879704,-0.03251278195488726,-0.027625563909774508,0.025943609022556373
0.082,1.0,8.17084060150376,-3.3651428571428577,-3.6782218045112787,-0.03250676691729327,-0.027613533834586538,0.025946616541353367
0.083,1.0,8.170804511278195,-3.365071428571429,-3.678113533834587,-0.03250075187969929,-0.02760150375939857,0.025949624060150358
0.084,1.0,8.170768421052632,-3.365,-3.678005263157895,-0.0324947368421053,-0.0275894736842106,0.025952631578947352
0.085,1.0,8.170732330827068,-3.364928571428572,-3.6778969924812035,-0.03248872180451132,-0.02757744360902263,0.025955639097744343
0.08600000000000001,1.0,8.170696240601504,-3.364857142857143,-3.6777887218045118,-0.03248270676691733,-0.02756541353383466,0.025958646616541337
0.08700000000000001,1.0,8.17066015037594,-3.3647857142857145,-3.67768045112782,-0.03247669172932335,-0.027553383458646694,0.025961654135338328
0.088,1.0,8.170624060150377,-3.364714285714286,-3.6775721804511283,-0.032470676691729365,-0.027541353383458724,0.02596466165413532
0.089,1.0,8.170587969924812,-3.3646428571428575,-3.6774639097744366,-0.03246466165413538,-0.027529323308270754,0.025967669172932313
0.09,1.0,8.170551879699248,-3.364571428571429,-3.677355639097745,-0.032458646616541395,-0.027517293233082787,0.025970676691729304
0.091,1.0,8.170515789473685,-3.3645000000000005,-3.677247368421053,-0.032452631578947407,-0.027505263157894817,0.025973684210526298
0.092,1.0,8.170479699248121,-3.3644285714285718,-3.6771390977443614,-0.032446616541353425,-0.027493233082706847,0.02597669172932329
0.093,1.0,8.170443609022557,-3.3643571428571435,-3.6770308270676697,-0.032440601503759436,-0.02748120300751888,0.025979699248120283
0.094,1.0,8.170407518796994,-3.3642857142857148,-3.676922556390978,-0.032434586466165455,-0.02746917293233091,0.025982706766917274
0.095,1.0,8.170371428571428,-3.364214285714286,-3.6768142857142863,-0.03242857142857147,-0.02745714285714294,0.025985714285714265
0.096,1.0,8.170335338345865,-3.3641428571428578,-3.6767060150375945,-0.032422556390977485,-0.027445112781954974,0.02598872180451126
0.097,1.0,8.170299248120301,-3.364071428571429,-3.676597744360903,-0.0324165413533835,-0.027433082706767004,0.02599172932330825
0.098,1.0,8.170263157894738,-3.3640000000000003,-3.676489473684211,-0.032410526315789515,-0.027421052631579033,0.025994736842105244
0.099,1.0,8.170227067669174,-3.363928571428572,-3.6763812030075194,-0.03240451127819553,-0.027409022556391063,0.025997744360902235
0.1,1.0,8.17019097744361,-3.3638571428571433,-3.6762729323308276,-0.03239849624060155,-0.027396992481203097,0.026000751879699226
0.101,1.0,8.170154887218045,-3.3637857142857146,-3.676164661654136,-0.03239248120300756,-0.027384962406015127,0.02600375939849622
0.10200000000000001,1.0,8.170118796992481,-3.3637142857142863,-3.676056390977444,-0.03238646616541358,-0.027372932330827156,0.02600676691729321
0.10300000000000001,1.0,8.170082706766918,-3.3636428571428576,-3.6759481203007525,-0.03238045112781959,-0.02736090225563919,0.026009774436090205
0.10400000000000001,1.0,8.170046616541354,-3.363571428571429,-3.6758398496240607,-0.03237443609022561,-0.02734887218045122,0.026012781954887196
0.105,1.0,8.17001052631579,-3.3635000000000006,-3.675731578947369,-0.03236842105263162,-0.02733684210526325,0.02601578947368419
0.106,1.0,8.169974436090227,-3.363428571428572,-3.6756233082706773,-0.03236240601503764,-0.027324812030075283,0.02601879699248118
0.107,1.0,8.169938345864661,-3.363357142857143,-3.6755150375939856,-0.03235639097744366,-0.027312781954887313,0.02602180451127817
0.108,1.0,8.169902255639098,-3.363285714285715,-3.675406766917294,-0.03235037593984967,-0.027300751879699343,0.026024812030075166
0.109,1.0,8.169866165413534,-3.363214285714286,-3.675298496240602,-0.03234436090225569,-0.027288721804511376,0.026027819548872157
0.11,1.0,8.16983007518797,-3.363142857142858,-3.6751902255639104,-0.0323383458646617,-0.027276691729323406,0.02603082706766915
0.111,1.0,8.169793984962407,-3.363071428571429,-3.6750819548872187,-0.03233233082706772,-0.027264661654135436,0.026033834586466142
0.112,1.0,8.169757894736843,-3.3630000000000004,-3.674973684210527,-0.03232631578947373,-0.027252631578947466,0.026036842105263136
0.113,1.0,8.169721804511278,-3.362928571428572,-3.6748654135338352,-0.03232030075187975,-0.0272406015037595,0.026039849624060127
0.114,1.0,8.169685714285714,-3.3628571428571434,-3.6747571428571435,-0.03231428571428577,-0.02722857142857153,0.026042857142857118
0.115,1.0,8.16964962406015,-3.3627857142857147,-3.6746488721804518,-0.03230827067669178,-0.02721654135338356,0.026045864661654112
0.116,1.0,8.169613533834587,-3.3627142857142864,-3.67454060150376,-0.0323022556390978,-0.027204511278195592,0.026048872180451103
0.117,1.0,8.169577443609024,-3.3626428571428577,-3.6744323308270683,-0.03229624060150381,-0.027192481203007622,0.026051879699248097
0.11800000000000001,1.0,8.16954135338346,-3.362571428571429,-3.6743240601503766,-0.03229022556390983,-0.027180451127819652,0.026054887218045088
0.11900000000000001,1.0,8.169505263157895,-3.3625000000000007,-3.674215789473685,-0.03228421052631584,-0.027168421052631685,0.026057894736842082
0.12,1.0,8.169469172932331,-3.362428571428572,-3.674107518796993,-0.03227819548872186,-0.027156390977443715,0.026060902255639073
0.121,1.0,8.169433082706767,-3.3623571428571433,-3.6739992481203014,-0.032272180451127876,-0.027144360902255745,0.026063909774436064
0.122,1.0,8.169396992481204,-3.362285714285715,-3.6738909774436097,-0.03226616541353389,-0.02713233082706778,0.026066917293233058
0.123,1.0,8.16936090225564,-3.3622142857142863,-3.673782706766918,-0.032260150375939906,-0.02712030075187981,0.02606992481203005
0.124,1.0,8.169324812030077,-3.3621428571428575,-3.6736744360902263,-0.03225413533834592,-0.027108270676691838,0.026072932330827043
0.125,1.0,8.169288721804513,-3.3620714285714293,-3.6735661654135345,-0.032248120300751935,-0.027096240601503868,0.026075939849624034
0.126,1.0,8.169252631578948,-3.3620000000000005,-3.673457894736843,-0.03224210526315795,-0.0270842105263159,0.026078947368421028
0.127,1.0,8.169216541353384,-3.361928571428572,-3.673349624060151,-0.032236090225563965,-0.02707218045112793,0.02608195488721802
0.128,1.0,8.16918045112782,-3.3618571428571435,-3.6732413533834594,-0.032230075187969984,-0.02706015037593996,0.02608496240601501
0.129,1.0,8.169144360902257,-3.361785714285715,-3.6731330827067676,-0.032224060150375995,-0.027048120300751995,0.026087969924812004
0.13,1.0,8.169108270676693,-3.3617142857142865,-3.673024812030076,-0.032218045112782014,-0.027036090225564025,0.026090977443608995
0.131,1.0,8.16907218045113,-3.361642857142858,-3.672916541353384,-0.032212030075188025,-0.027024060150376054,0.02609398496240599
0.132,1.0,8.169036090225564,-3.361571428571429,-3.6728082706766925,-0.032206015037594043,-0.027012030075188088,0.02609699248120298
0.133,1.0,8.169,-3.361500000000001,-3.6727000000000007,-0.032200000000000055,-0.027000000000000118,0.026099999999999974
0.134,1.0,8.168970050125314,-3.361541979949874,-3.6727240601503754,-0.032197368421052655,-0.02699223057644118,0.026108521303258064
0.135,1.0,8.168940100250627,-3.361583959899749,-3.6727481203007515,-0.03219473684210529,-0.02698446115288228,0.02611704260651621
0.136,1.0,8.168910150375941,-3.3616259398496235,-3.6727721804511275,-0.03219210526315792,-0.026976691729323383,0.026125563909774354
0.137,1.0,8.168880200501254,-3.361667919799498,-3.6727962406015036,-0.03218947368421055,-0.026968922305764486,0.0261340852130325
0.138,1.0,8.168850250626567,-3.361709899749373,-3.672820300751879,-0.03218684210526318,-0.02696115288220559,0.026142606516290644
0.139,1.0,8.16882030075188,-3.3617518796992476,-3.672844360902255,-0.032184210526315815,-0.02695338345864669,0.02615112781954879
0.14,1.0,8.168790350877194,-3.361793859649122,-3.6728684210526312,-0.03218157894736844,-0.026945614035087793,0.026159649122806935
0.14100000000000001,1.0,8.168760401002507,-3.361835839598997,-3.6728924812030073,-0.03217894736842108,-0.0269378446115289,0.02616817042606508
0.14200000000000002,1.0,8.16873045112782,-3.3618778195488717,-3.672916541353383,-0.03217631578947371,-0.026930075187970002,0.026176691729323225
0.14300000000000002,1.0,8.168700501253134,-3.361919799498746,-3.672940601503759,-0.03217368421052634,-0.026922305764411104,0.02618521303258137
0.14400000000000002,1.0,8.168670551378447,-3.361961779448621,-3.672964661654135,-0.032171052631578975,-0.026914536340852207,0.026193734335839516
0.145,1.0,8.16864060150376,-3.3620037593984957,-3.672988721804511,-0.0321684210526316,-0.02690676691729331,0.02620225563909766
0.146,1.0,8.168610651629074,-3.3620457393483703,-3.673012781954887,-0.03216578947368424,-0.026898997493734412,0.026210776942355806
0.147,1.0,8.168580701754387,-3.3620877192982452,-3.6730368421052626,-0.032163157894736866,-0.026891228070175514,0.026219298245613955
0.148,1.0,8.1685507518797,-3.3621296992481198,-3.6730609022556386,-0.0321605263157895,-0.026883458646616617,0.0262278195488721
0.149,1.0,8.168520802005013,-3.3621716791979943,-3.6730849624060147,-0.03215789473684213,-0.02687568922305772,0.026236340852130245
0.15,1.0,8.168490852130327,-3.3622136591478693,-3.6731090225563907,-0.03215526315789476,-0.026867919799498822,0.02624486215538839
0.151,1.0,8.16846090225564,-3.362255639097744,-3.6731330827067667,-0.03215263157894739,-0.026860150375939924,0.026253383458646536
0.152,1.0,8.168430952380954,-3.3622976190476184,-3.6731571428571423,-0.032150000000000026,-0.026852380952381027,0.02626190476190468
0.153,1.0,8.168401002506267,-3.3623395989974934,-3.6731812030075184,-0.032147368421052654,-0.026844611528822133,0.026270426065162826
0.154,1.0,8.16837105263158,-3.362381578947368,-3.6732052631578944,-0.03214473684210529,-0.026836842105263235,0.02627894736842097
0.155,1.0,8.168341102756893,-3.3624235588972424,-3.6732293233082705,-0.03214210526315792,-0.026829072681704338,0.026287468671679116
0.156,1.0,8.168311152882206,-3.3624655388471174,-3.673253383458646,-0.03213947368421055,-0.02682130325814544,0.02629598997493726
0.157,1.0,8.168281203007519,-3.362507518796992,-3.673277443609022,-0.032136842105263186,-0.026813533834586543,0.026304511278195407
0.158,1.0,8.168251253132834,-3.3625494987468665,-3.673301503759398,-0.032134210526315814,-0.026805764411027645,0.026313032581453552
0.159,1.0,8.168221303258147,-3.3625914786967415,-3.673325563909774,-0.03213157894736845,-0.026797994987468748,0.026321553884711697
0.16,1.0,8.16819135338346,-3.362633458646616,-3.67334962406015,-0.032128947368421076,-0.02679022556390985,0.026330075187969842
0.161,1.0,8.168161403508773,-3.3626754385964905,-3.673373684210526,-0.03212631578947371,-0.026782456140350953,0.026338596491227988
0.162,1.0,8.168131453634086,-3.3627174185463655,-3.673397744360902,-0.03212368421052634,-0.026774686716792055,0.026347117794486133
0.163,1.0,8.168101503759399,-3.36275939849624,-3.673421804511278,-0.032121052631578974,-0.026766917293233158,0.026355639097744278
0.164,1.0,8.168071553884712,-3.3628013784461146,-3.673445864661654,-0.0321184210526316,-0.02675914786967426,0.026364160401002423
0.165,1.0,8.168041604010027,-3.3628433583959896,-3.6734699248120295,-0.032115789473684236,-0.026751378446115363,0.02637268170426057
0.166,1.0,8.16801165413534,-3.362885338345864,-3.6734939849624055,-0.032113157894736864,-0.02674360902255647,0.026381203007518714
0.167,1.0,8.167981704260653,-3.3629273182957387,-3.6735180451127816,-0.0321105263157895,-0.02673583959899757,0.02638972431077686
0.168,1.0,8.167951754385966,-3.3629692982456136,-3.6735421052631576,-0.032107894736842134,-0.026728070175438674,0.026398245614035004
0.169,1.0,8.167921804511279,-3.363011278195488,-3.6735661654135336,-0.03210526315789476,-0.026720300751879776,0.02640676691729315
0.17,1.0,8.167891854636592,-3.3630532581453627,-3.6735902255639092,-0.032102631578947396,-0.02671253132832088,0.026415288220551295
0.171,1.0,8.167861904761905,-3.3630952380952377,-3.6736142857142853,-0.032100000000000024,-0.02670476190476198,0.02642380952380944
0.17200000000000001,1.0,8.16783195488722,-3.3631372180451122,-3.6736383458646613,-0.03209736842105266,-0.026696992481203084,0.02643233082706759
0.17300000000000001,1.0,8.167802005012533,-3.363179197994987,-3.6736624060150374,-0.03209473684210529,-0.026689223057644186,0.026440852130325734
0.17400000000000002,1.0,8.167772055137846,-3.3632211779448618,-3.673686466165413,-0.03209210526315792,-0.02668145363408529,0.02644937343358388
0.17500000000000002,1.0,8.167742105263159,-3.3632631578947363,-3.673710526315789,-0.03208947368421055,-0.02667368421052639,0.026457894736842024
0.176,1.0,8.167712155388472,-3.3633051378446113,-3.673734586466165,-0.032086842105263184,-0.026665914786967494,0.02646641604010017
0.177,1.0,8.167682205513785,-3.363347117794486,-3.673758646616541,-0.03208421052631581,-0.026658145363408596,0.026474937343358314
0.178,1.0,8.167652255639098,-3.3633890977443603,-3.673782706766917,-0.03208157894736845,-0.026650375939849702,0.02648345864661646
0.179,1.0,8.167622305764413,-3.3634310776942353,-3.6738067669172927,-0.032078947368421075,-0.026642606516290804,0.026491979949874605
0.18,1.0,8.167592355889726,-3.36347305764411,-3.6738308270676687,-0.03207631578947371,-0.026634837092731907,0.02650050125313275
0.181,1.0,8.167562406015039,-3.3635150375939844,-3.6738548872180448,-0.032073684210526344,-0.02662706766917301,0.026509022556390895
0.182,1.0,8.167532456140352,-3.3635570175438594,-3.673878947368421,-0.03207105263157897,-0.026619298245614112,0.02651754385964904
0.183,1.0,8.167502506265665,-3.363598997493734,-3.6739030075187964,-0.03206842105263161,-0.026611528822055214,0.026526065162907186
0.184,1.0,8.167472556390978,-3.3636409774436085,-3.6739270676691724,-0.032065789473684235,-0.026603759398496317,0.02653458646616533
0.185,1.0,8.16744260651629,-3.3636829573934834,-3.6739511278195485,-0.03206315789473687,-0.02659598997493742,0.026543107769423476
0.186,1.0,8.167412656641604,-3.363724937343358,-3.6739751879699245,-0.0320605263157895,-0.026588220551378522,0.02655162907268162
0.187,1.0,8.167382706766919,-3.3637669172932325,-3.6739992481203005,-0.03205789473684213,-0.026580451127819624,0.026560150375939767
0.188,1.0,8.167352756892232,-3.3638088972431075,-3.674023308270676,-0.03205526315789476,-0.026572681704260727,0.026568671679197912
0.189,1.0,8.167322807017545,-3.363850877192982,-3.674047368421052,-0.032052631578947395,-0.02656491228070183,0.026577192982456057
0.19,1.0,8.167292857142858,-3.3638928571428566,-3.674071428571428,-0.03205000000000002,-0.026557142857142935,0.026585714285714202
0.191,1.0,8.16726290726817,-3.3639348370927316,-3.6740954887218042,-0.03204736842105266,-0.026549373433584038,0.026594235588972347
0.192,1.0,8.167232957393484,-3.363976817042606,-3.6741195488721803,-0.032044736842105286,-0.02654160401002514,0.026602756892230493
0.193,1.0,8.167203007518797,-3.3640187969924806,-3.674143609022556,-0.03204210526315792,-0.026533834586466243,0.026611278195488638
0.194,1.0,8.167173057644112,-3.3640607769423556,-3.674167669172932,-0.032039473684210555,-0.026526065162907345,0.026619799498746783
0.195,1.0,8.167143107769425,-3.36410275689223,-3.674191729323308,-0.03203684210526318,-0.026518295739348448,0.026628320802004928
0.196,1.0,8.167113157894738,-3.3641447368421047,-3.674215789473684,-0.03203421052631582,-0.02651052631578955,0.026636842105263073
0.197,1.0,8.16708320802005,-3.3641867167919797,-3.6742398496240596,-0.032031578947368446,-0.026502756892230653,0.02664536340852122
0.198,1.0,8.167053258145364,-3.364228696741854,-3.6742639097744356,-0.03202894736842108,-0.026494987468671755,0.026653884711779367
0.199,1.0,8.167023308270677,-3.3642706766917287,-3.6742879699248117,-0.03202631578947371,-0.026487218045112858,0.026662406015037513
0.2,1.0,8.16699335839599,-3.3643126566416037,-3.6743120300751877,-0.03202368421052634,-0.02647944862155396,0.026670927318295658
0.201,1.0,8.166963408521305,-3.3643546365914783,-3.6743360902255637,-0.03202105263157897,-0.026471679197995063,0.026679448621553803
0.202,1.0,8.166933458646618,-3.364396616541353,-3.6743601503759393,-0.032018421052631606,-0.02646390977443617,0.026687969924811948
0.203,1.0,8.16690350877193,-3.364438596491228,-3.6743842105263154,-0.032015789473684234,-0.02645614035087727,0.026696491228070093
0.20400000000000001,1.0,8.166873558897244,-3.3644805764411023,-3.6744082706766914,-0.03201315789473687,-0.026448370927318374,0.02670501253132824
0.20500000000000002,1.0,8.166843609022557,-3.364522556390977,-3.6744323308270674,-0.032010526315789496,-0.026440601503759476,0.026713533834586384
0.20600000000000002,1.0,8.16681365914787,-3.364564536340852,-3.674456390977443,-0.03200789473684213,-0.02643283208020058,0.02672205513784453
0.20700000000000002,1.0,8.166783709273183,-3.3646065162907264,-3.674480451127819,-0.03200526315789476,-0.02642506265664168,0.026730576441102674
0.20800000000000002,1.0,8.166753759398498,-3.364648496240601,-3.674504511278195,-0.032002631578947394,-0.026417293233082784,0.02673909774436082
0.209,1.0,8.16672380952381,-3.364690476190476,-3.674528571428571,-0.03200000000000003,-0.026409523809523886,0.026747619047618965
0.21,1.0,8.166693859649124,-3.3647324561403504,-3.674552631578947,-0.031997368421052656,-0.02640175438596499,0.02675614035087711
0.211,1.0,8.166663909774437,-3.364774436090225,-3.6745766917293228,-0.03199473684210529,-0.02639398496240609,0.026764661654135255
0.212,1.0,8.16663395989975,-3.3648164160401,-3.674600751879699,-0.03199210526315792,-0.026386215538847194,0.0267731829573934
0.213,1.0,8.166604010025063,-3.3648583959899745,-3.674624812030075,-0.031989473684210554,-0.026378446115288296,0.026781704260651545
0.214,1.0,8.166574060150376,-3.364900375939849,-3.674648872180451,-0.03198684210526318,-0.0263706766917294,0.02679022556390969
0.215,1.0,8.166544110275689,-3.364942355889724,-3.6746729323308265,-0.031984210526315816,-0.026362907268170505,0.026798746867167836
0.216,1.0,8.166514160401004,-3.3649843358395986,-3.6746969924812025,-0.031981578947368444,-0.026355137844611607,0.02680726817042598
0.217,1.0,8.166484210526317,-3.365026315789473,-3.6747210526315786,-0.03197894736842108,-0.02634736842105271,0.026815789473684126
0.218,1.0,8.16645426065163,-3.365068295739348,-3.6747451127819546,-0.03197631578947371,-0.026339598997493812,0.02682431077694227
0.219,1.0,8.166424310776943,-3.3651102756892226,-3.6747691729323306,-0.03197368421052634,-0.026331829573934915,0.026832832080200417
0.22,1.0,8.166394360902256,-3.365152255639097,-3.6747932330827062,-0.03197105263157897,-0.026324060150376017,0.026841353383458562
0.221,1.0,8.166364411027569,-3.365194235588972,-3.6748172932330823,-0.031968421052631604,-0.02631629072681712,0.026849874686716707
0.222,1.0,8.166334461152882,-3.3652362155388467,-3.6748413533834583,-0.03196578947368424,-0.026308521303258222,0.026858395989974852
0.223,1.0,8.166304511278197,-3.365278195488721,-3.6748654135338343,-0.03196315789473687,-0.026300751879699324,0.026866917293232997
0.224,1.0,8.16627456140351,-3.365320175438596,-3.6748894736842104,-0.0319605263157895,-0.026292982456140427,0.026875438596491143
0.225,1.0,8.166244611528823,-3.3653621553884707,-3.674913533834586,-0.03195789473684213,-0.02628521303258153,0.02688395989974929
0.226,1.0,8.166214661654136,-3.3654041353383453,-3.674937593984962,-0.031955263157894764,-0.026277443609022632,0.026892481203007437
0.227,1.0,8.166184711779449,-3.3654461152882202,-3.674961654135338,-0.03195263157894739,-0.026269674185463738,0.026901002506265582
0.228,1.0,8.166154761904762,-3.365488095238095,-3.674985714285714,-0.03195000000000003,-0.02626190476190484,0.026909523809523727
0.229,1.0,8.166124812030075,-3.3655300751879693,-3.6750097744360897,-0.031947368421052655,-0.026254135338345943,0.026918045112781872
0.23,1.0,8.16609486215539,-3.3655720551378443,-3.6750338345864657,-0.03194473684210529,-0.026246365914787045,0.026926566416040017
0.231,1.0,8.166064912280703,-3.365614035087719,-3.6750578947368417,-0.03194210526315792,-0.026238596491228148,0.026935087719298163
0.232,1.0,8.166034962406016,-3.3656560150375934,-3.675081954887218,-0.03193947368421055,-0.02623082706766925,0.026943609022556308
0.233,1.0,8.166005012531329,-3.3656979949874684,-3.675106015037594,-0.03193684210526318,-0.026223057644110353,0.026952130325814453
0.234,1.0,8.165975062656642,-3.365739974937343,-3.6751300751879694,-0.031934210526315815,-0.026215288220551455,0.026960651629072598
0.23500000000000001,1.0,8.165945112781955,-3.3657819548872174,-3.6751541353383455,-0.03193157894736845,-0.026207518796992558,0.026969172932330743
0.23600000000000002,1.0,8.165915162907268,-3.3658239348370924,-3.6751781954887215,-0.03192894736842108,-0.02619974937343366,0.02697769423558889
0.23700000000000002,1.0,8.165885213032583,-3.365865914786967,-3.6752022556390975,-0.03192631578947371,-0.026191979949874763,0.026986215538847034
0.23800000000000002,1.0,8.165855263157896,-3.3659078947368415,-3.675226315789473,-0.03192368421052634,-0.026184210526315865,0.02699473684210518
0.23900000000000002,1.0,8.165825313283209,-3.3659498746867165,-3.675250375939849,-0.031921052631578975,-0.02617644110275697,0.027003258145363324
0.24,1.0,8.165795363408522,-3.365991854636591,-3.675274436090225,-0.0319184210526316,-0.026168671679198074,0.02701177944862147
0.241,1.0,8.165765413533835,-3.3660338345864655,-3.6752984962406012,-0.03191578947368424,-0.026160902255639176,0.027020300751879615
0.242,1.0,8.165735463659148,-3.3660758145363405,-3.6753225563909773,-0.031913157894736865,-0.02615313283208028,0.02702882205513776
0.243,1.0,8.165705513784461,-3.366117794486215,-3.675346616541353,-0.0319105263157895,-0.02614536340852138,0.027037343358395905
0.244,1.0,8.165675563909774,-3.3661597744360896,-3.675370676691729,-0.03190789473684213,-0.026137593984962484,0.02704586466165405
0.245,1.0,8.165645614035089,-3.3662017543859646,-3.675394736842105,-0.03190526315789476,-0.026129824561403586,0.027054385964912196
0.246,1.0,8.165615664160402,-3.366243734335839,-3.675418796992481,-0.03190263157894739,-0.02612205513784469,0.02706290726817034
0.247,1.0,8.165585714285715,-3.3662857142857137,-3.6754428571428566,-0.031900000000000026,-0.02611428571428579,0.027071428571428486
0.248,1.0,8.165555764411028,-3.3663276942355886,-3.6754669172932326,-0.03189736842105266,-0.026106516290726894,0.02707994987468663
0.249,1.0,8.165525814536341,-3.366369674185463,-3.6754909774436086,-0.03189473684210529,-0.026098746867167996,0.027088471177944776
0.25,1.0,8.165495864661654,-3.3664116541353377,-3.6755150375939847,-0.03189210526315792,-0.0260909774436091,0.027096992481202925
0.251,1.0,8.165465914786967,-3.3664536340852127,-3.6755390977443607,-0.03188947368421055,-0.0260832080200502,0.02710551378446107
0.252,1.0,8.165435964912282,-3.3664956140350872,-3.6755631578947363,-0.031886842105263186,-0.026075438596491307,0.027114035087719215
0.253,1.0,8.165406015037595,-3.3665375939849618,-3.6755872180451123,-0.031884210526315813,-0.02606766917293241,0.02712255639097736
0.254,1.0,8.165376065162908,-3.3665795739348368,-3.6756112781954884,-0.03188157894736845,-0.026059899749373512,0.027131077694235506
0.255,1.0,8.165346115288221,-3.3666215538847113,-3.6756353383458644,-0.031878947368421076,-0.026052130325814615,0.02713959899749365
0.256,1.0,8.165316165413534,-3.366663533834586,-3.67565939849624,-0.03187631578947371,-0.026044360902255717,0.027148120300751796
0.257,1.0,8.165286215538847,-3.366705513784461,-3.675683458646616,-0.03187368421052634,-0.02603659147869682,0.02715664160400994
0.258,1.0,8.16525626566416,-3.3667474937343354,-3.675707518796992,-0.031871052631578974,-0.026028822055137922,0.027165162907268087
0.259,1.0,8.165226315789475,-3.36678947368421,-3.675731578947368,-0.0318684210526316,-0.026021052631579025,0.027173684210526232
0.26,1.0,8.165196365914788,-3.366831453634085,-3.675755639097744,-0.031865789473684236,-0.026013283208020127,0.027182205513784377
0.261,1.0,8.165166416040101,-3.3668734335839594,-3.6757796992481198,-0.03186315789473687,-0.02600551378446123,0.027190726817042522
0.262,1.0,8.165136466165414,-3.366915413533834,-3.675803759398496,-0.0318605263157895,-0.025997744360902332,0.027199248120300668
0.263,1.0,8.165106516290727,-3.366957393483709,-3.675827819548872,-0.031857894736842134,-0.025989974937343435,0.027207769423558813
0.264,1.0,8.16507656641604,-3.3669993734335835,-3.675851879699248,-0.03185526315789476,-0.02598220551378454,0.027216290726816958
0.265,1.0,8.165046616541353,-3.367041353383458,-3.675875939849624,-0.031852631578947396,-0.025974436090225643,0.027224812030075103
0.266,1.0,8.165016666666668,-3.367083333333333,-3.6758999999999995,-0.031850000000000024,-0.025966666666666745,0.02723333333333325
0.267,1.0,8.164986716791981,-3.3671253132832075,-3.6759240601503755,-0.03184736842105266,-0.025958897243107848,0.027241854636591394
0.268,1.0,8.164956766917294,-3.367167293233082,-3.6759481203007516,-0.03184473684210529,-0.02595112781954895,0.02725037593984954
0.269,1.0,8.164926817042607,-3.367209273182957,-3.6759721804511276,-0.03184210526315792,-0.025943358395990053,0.027258897243107684
0.27,1.0,8.16489686716792,-3.3672512531328316,-3.675996240601503,-0.03183947368421055,-0.025935588972431155,0.02726741854636583
0.271,1.0,8.164866917293233,-3.367293233082706,-3.6760203007518792,-0.031836842105263184,-0.025927819548872258,0.027275939849623974
0.272,1.0,8.164836967418546,-3.367335213032581,-3.6760443609022553,-0.03183421052631581,-0.02592005012531336,0.02728446115288212
0.273,1.0,8.16480701754386,-3.3673771929824556,-3.6760684210526313,-0.03183157894736845,-0.025912280701754463,0.027292982456140265
0.274,1.0,8.164777067669174,-3.36741917293233,-3.6760924812030074,-0.03182894736842108,-0.025904511278195565,0.02730150375939841
0.275,1.0,8.164747117794487,-3.367461152882205,-3.676116541353383,-0.03182631578947371,-0.025896741854636668,0.027310025062656555
0.276,1.0,8.1647171679198,-3.3675031328320797,-3.676140601503759,-0.031823684210526344,-0.025888972431077774,0.027318546365914704
0.277,1.0,8.164687218045113,-3.3675451127819542,-3.676164661654135,-0.03182105263157897,-0.025881203007518876,0.02732706766917285
0.278,1.0,8.164657268170426,-3.367587092731829,-3.676188721804511,-0.03181842105263161,-0.02587343358395998,0.027335588972430994
0.279,1.0,8.16462731829574,-3.3676290726817038,-3.6762127819548867,-0.031815789473684235,-0.02586566416040108,0.02734411027568914
0.28,1.0,8.164597368421052,-3.3676710526315783,-3.6762368421052627,-0.03181315789473687,-0.025857894736842184,0.027352631578947285
0.281,1.0,8.164567418546367,-3.3677130325814533,-3.6762609022556387,-0.0318105263157895,-0.025850125313283286,0.02736115288220543
0.28200000000000003,1.0,8.16453746867168,-3.367755012531328,-3.6762849624060148,-0.03180789473684213,-0.02584235588972439,0.027369674185463575
0.28300000000000003,1.0,8.164507518796993,-3.3677969924812023,-3.676309022556391,-0.03180526315789476,-0.02583458646616549,0.02737819548872172
0.28400000000000003,1.0,8.164477568922306,-3.3678389724310773,-3.6763330827067664,-0.031802631578947395,-0.025826817042606594,0.027386716791979866
0.28500000000000003,1.0,8.16444761904762,-3.367880952380952,-3.6763571428571424,-0.03180000000000002,-0.025819047619047696,0.02739523809523801
0.28600000000000003,1.0,8.164417669172932,-3.3679229323308264,-3.6763812030075185,-0.03179736842105266,-0.0258112781954888,0.027403759398496156
0.28700000000000003,1.0,8.164387719298245,-3.3679649122807014,-3.6764052631578945,-0.03179473684210529,-0.0258035087719299,0.0274122807017543
0.28800000000000003,1.0,8.16435776942356,-3.368006892230576,-3.67642932330827,-0.03179210526315792,-0.025795739348371004,0.027420802005012446
0.289,1.0,8.164327819548873,-3.3680488721804505,-3.676453383458646,-0.031789473684210555,-0.02578796992481211,0.02742932330827059
0.29,1.0,8.164297869674186,-3.3680908521303254,-3.676477443609022,-0.03178684210526318,-0.025780200501253212,0.027437844611528737
0.291,1.0,8.1642679197995,-3.3681328320802,-3.676501503759398,-0.03178421052631582,-0.025772431077694315,0.027446365914786882
0.292,1.0,8.164237969924812,-3.3681748120300745,-3.6765255639097743,-0.031781578947368445,-0.025764661654135417,0.027454887218045027
0.293,1.0,8.164208020050125,-3.3682167919799495,-3.67654962406015,-0.03177894736842108,-0.02575689223057652,0.027463408521303172
0.294,1.0,8.164178070175439,-3.368258771929824,-3.676573684210526,-0.03177631578947371,-0.025749122807017622,0.027471929824561318
0.295,1.0,8.164148120300753,-3.3683007518796986,-3.676597744360902,-0.03177368421052634,-0.025741353383458725,0.027480451127819463
0.296,1.0,8.164118170426066,-3.3683427318295736,-3.676621804511278,-0.03177105263157897,-0.025733583959899827,0.027488972431077608
0.297,1.0,8.16408822055138,-3.368384711779448,-3.6766458646616536,-0.031768421052631605,-0.02572581453634093,0.027497493734335753
0.298,1.0,8.164058270676692,-3.3684266917293226,-3.6766699248120296,-0.03176578947368423,-0.025718045112782032,0.0275060150375939
0.299,1.0,8.164028320802005,-3.3684686716791976,-3.6766939849624056,-0.03176315789473687,-0.025710275689223135,0.027514536340852044
0.3,1.0,8.163998370927319,-3.368510651629072,-3.6767180451127817,-0.0317605263157895,-0.02570250626566424,0.02752305764411019
0.301,1.0,8.163968421052632,-3.3685526315789467,-3.6767421052631577,-0.03175789473684213,-0.025694736842105343,0.027531578947368334
0.302,1.0,8.163938471177945,-3.3685946115288217,-3.6767661654135333,-0.031755263157894766,-0.025686967418546446,0.027540100250626483
0.303,1.0,8.16390852130326,-3.368636591478696,-3.6767902255639093,-0.03175263157894739,-0.025679197994987548,0.027548621553884628
0.304,1.0,8.163878571428572,-3.3686785714285707,-3.6768142857142854,-0.03175000000000003,-0.02567142857142865,0.027557142857142773
0.305,1.0,8.163848621553885,-3.3687205513784457,-3.6768383458646614,-0.031747368421052656,-0.025663659147869753,0.02756566416040092
0.306,1.0,8.163818671679199,-3.3687625313283203,-3.6768624060150374,-0.03174473684210529,-0.025655889724310856,0.027574185463659064
0.307,1.0,8.163788721804512,-3.368804511278195,-3.676886466165413,-0.03174210526315792,-0.025648120300751958,0.02758270676691721
0.308,1.0,8.163758771929825,-3.36884649122807,-3.676910526315789,-0.031739473684210553,-0.02564035087719306,0.027591228070175354
0.309,1.0,8.163728822055138,-3.3688884711779443,-3.676934586466165,-0.03173684210526318,-0.025632581453634163,0.0275997493734335
0.31,1.0,8.163698872180452,-3.368930451127819,-3.676958646616541,-0.031734210526315816,-0.025624812030075265,0.027608270676691644
0.311,1.0,8.163668922305765,-3.368972431077694,-3.6769827067669167,-0.031731578947368444,-0.025617042606516368,0.02761679197994979
0.312,1.0,8.163638972431078,-3.3690144110275684,-3.677006766917293,-0.03172894736842108,-0.02560927318295747,0.027625313283207935
0.313,1.0,8.163609022556392,-3.369056390977443,-3.677030827067669,-0.031726315789473714,-0.025601503759398576,0.02763383458646608
0.314,1.0,8.163579072681705,-3.369098370927318,-3.677054887218045,-0.03172368421052634,-0.02559373433583968,0.027642355889724225
0.315,1.0,8.163549122807018,-3.3691403508771924,-3.677078947368421,-0.031721052631578976,-0.02558596491228078,0.02765087719298237
0.316,1.0,8.16351917293233,-3.369182330827067,-3.6771030075187965,-0.031718421052631604,-0.025578195488721884,0.027659398496240516
0.317,1.0,8.163489223057645,-3.369224310776942,-3.6771270676691725,-0.03171578947368424,-0.025570426065162986,0.02766791979949866
0.318,1.0,8.163459273182958,-3.3692662907268165,-3.6771511278195486,-0.03171315789473687,-0.02556265664160409,0.027676441102756806
0.319,1.0,8.163429323308272,-3.3693082706766915,-3.6771751879699246,-0.0317105263157895,-0.02555488721804519,0.02768496240601495
0.32,1.0,8.163399373433585,-3.369350250626566,-3.6771992481203,-0.03170789473684213,-0.025547117794486294,0.027693483709273096
0.321,1.0,8.163369423558898,-3.3693922305764406,-3.6772233082706762,-0.031705263157894764,-0.025539348370927396,0.02770200501253124
0.322,1.0,8.16333947368421,-3.3694342105263155,-3.6772473684210523,-0.03170263157894739,-0.0255315789473685,0.027710526315789387
0.323,1.0,8.163309523809524,-3.36947619047619,-3.6772714285714283,-0.03170000000000003,-0.0255238095238096,0.027719047619047532
0.324,1.0,8.163279573934838,-3.3695181704260646,-3.6772954887218043,-0.031697368421052655,-0.025516040100250704,0.027727568922305677
0.325,1.0,8.163249624060152,-3.3695601503759396,-3.67731954887218,-0.03169473684210529,-0.025508270676691806,0.027736090225563823
0.326,1.0,8.163219674185465,-3.369602130325814,-3.677343609022556,-0.031692105263157924,-0.025500501253132912,0.027744611528821968
0.327,1.0,8.163189724310778,-3.3696441102756887,-3.677367669172932,-0.03168947368421055,-0.025492731829574015,0.027753132832080113
0.328,1.0,8.16315977443609,-3.3696860902255636,-3.677391729323308,-0.03168684210526319,-0.025484962406015117,0.027761654135338258
0.329,1.0,8.163129824561404,-3.369728070175438,-3.6774157894736836,-0.031684210526315815,-0.02547719298245622,0.027770175438596407
0.33,1.0,8.163099874686717,-3.3697700501253127,-3.6774398496240597,-0.03168157894736845,-0.025469423558897322,0.027778696741854552
0.331,1.0,8.16306992481203,-3.3698120300751877,-3.6774639097744357,-0.03167894736842108,-0.025461654135338425,0.027787218045112697
0.332,1.0,8.163039974937345,-3.3698540100250622,-3.6774879699248118,-0.03167631578947371,-0.025453884711779527,0.027795739348370842
0.333,1.0,8.163010025062658,-3.369895989974937,-3.677512030075188,-0.03167368421052634,-0.02544611528822063,0.027804260651628988
0.334,1.0,8.16298007518797,-3.3699379699248118,-3.6775360902255634,-0.031671052631578975,-0.025438345864661732,0.027812781954887133
0.335,1.0,8.162950125313284,-3.3699799498746863,-3.6775601503759394,-0.0316684210526316,-0.025430576441102835,0.027821303258145278
0.336,1.0,8.162920175438597,-3.370021929824561,-3.6775842105263155,-0.03166578947368424,-0.025422807017543937,0.027829824561403423
0.337,1.0,8.16289022556391,-3.370063909774436,-3.6776082706766915,-0.031663157894736865,-0.025415037593985043,0.02783834586466157
0.338,1.0,8.162860275689223,-3.3701058897243104,-3.677632330827067,-0.0316605263157895,-0.025407268170426146,0.027846867167919714
0.339,1.0,8.162830325814538,-3.370147869674185,-3.677656390977443,-0.03165789473684213,-0.025399498746867248,0.02785538847117786
0.34,1.0,8.16280037593985,-3.37018984962406,-3.677680451127819,-0.03165526315789476,-0.02539172932330835,0.027863909774436004
0.341,1.0,8.162770426065164,-3.3702318295739344,-3.677704511278195,-0.0316526315789474,-0.025383959899749453,0.02787243107769415
0.342,1.0,8.162740476190477,-3.370273809523809,-3.6777285714285712,-0.031650000000000025,-0.025376190476190556,0.027880952380952295
0.343,1.0,8.16271052631579,-3.370315789473684,-3.677752631578947,-0.03164736842105266,-0.025368421052631658,0.02788947368421044
0.34400000000000003,1.0,8.162680576441103,-3.3703577694235585,-3.677776691729323,-0.03164473684210529,-0.02536065162907276,0.027897994987468585
0.34500000000000003,1.0,8.162650626566416,-3.370399749373433,-3.677800751879699,-0.03164210526315792,-0.025352882205513863,0.02790651629072673
0.34600000000000003,1.0,8.16262067669173,-3.370441729323308,-3.677824812030075,-0.03163947368421055,-0.025345112781954966,0.027915037593984875
0.34700000000000003,1.0,8.162590726817044,-3.3704837092731825,-3.677848872180451,-0.031636842105263185,-0.025337343358396068,0.02792355889724302
0.34800000000000003,1.0,8.162560776942357,-3.370525689223057,-3.6778729323308266,-0.03163421052631581,-0.02532957393483717,0.027932080200501166
0.34900000000000003,1.0,8.16253082706767,-3.370567669172932,-3.6778969924812026,-0.03163157894736845,-0.025321804511278273,0.02794060150375931
0.35000000000000003,1.0,8.162500877192983,-3.3706096491228066,-3.6779210526315786,-0.031628947368421076,-0.02531403508771938,0.027949122807017456
0.35100000000000003,1.0,8.162470927318296,-3.370651629072681,-3.6779451127819547,-0.03162631578947371,-0.02530626566416048,0.0279576441102756
0.352,1.0,8.162440977443609,-3.370693609022556,-3.6779691729323303,-0.031623684210526345,-0.025298496240601584,0.027966165413533747
0.353,1.0,8.162411027568922,-3.3707355889724306,-3.6779932330827063,-0.03162105263157897,-0.025290726817042686,0.027974686716791892
0.354,1.0,8.162381077694237,-3.370777568922305,-3.6780172932330824,-0.03161842105263161,-0.02528295739348379,0.027983208020050037
0.355,1.0,8.16235112781955,-3.37081954887218,-3.6780413533834584,-0.031615789473684236,-0.02527518796992489,0.027991729323308186
0.356,1.0,8.162321177944863,-3.3708615288220547,-3.6780654135338344,-0.03161315789473687,-0.025267418546365994,0.02800025062656633
0.357,1.0,8.162291228070176,-3.3709035087719292,-3.67808947368421,-0.0316105263157895,-0.025259649122807096,0.028008771929824476
0.358,1.0,8.162261278195489,-3.370945488721804,-3.678113533834586,-0.03160789473684213,-0.0252518796992482,0.02801729323308262
0.359,1.0,8.162231328320802,-3.3709874686716788,-3.678137593984962,-0.03160526315789476,-0.0252441102756893,0.028025814536340767
0.36,1.0,8.162201378446115,-3.3710294486215533,-3.678161654135338,-0.031602631578947396,-0.025236340852130404,0.02803433583959891
0.361,1.0,8.16217142857143,-3.3710714285714283,-3.6781857142857137,-0.031600000000000024,-0.02522857142857151,0.028042857142857057
0.362,1.0,8.162141478696743,-3.371113408521303,-3.6782097744360898,-0.03159736842105266,-0.025220802005012612,0.028051378446115202
0.363,1.0,8.162111528822056,-3.3711553884711773,-3.678233834586466,-0.03159473684210529,-0.025213032581453715,0.028059899749373347
0.364,1.0,8.162081578947369,-3.3711973684210523,-3.678257894736842,-0.03159210526315792,-0.025205263157894817,0.028068421052631493
0.365,1.0,8.162051629072682,-3.371239348370927,-3.678281954887218,-0.03158947368421055,-0.02519749373433592,0.028076942355889638
0.366,1.0,8.162021679197995,-3.3712813283208014,-3.6783060150375935,-0.031586842105263184,-0.025189724310777022,0.028085463659147783
0.367,1.0,8.161991729323308,-3.3713233082706764,-3.6783300751879695,-0.03158421052631582,-0.025181954887218125,0.028093984962405928
0.368,1.0,8.161961779448623,-3.371365288220551,-3.6783541353383455,-0.03158157894736845,-0.025174185463659227,0.028102506265664073
0.369,1.0,8.161931829573936,-3.3714072681704255,-3.6783781954887216,-0.03157894736842108,-0.02516641604010033,0.02811102756892222
0.37,1.0,8.161901879699249,-3.3714492481203004,-3.678402255639097,-0.03157631578947371,-0.025158646616541432,0.028119548872180364
0.371,1.0,8.161871929824562,-3.371491228070175,-3.678426315789473,-0.031573684210526344,-0.025150877192982535,0.02812807017543851
0.372,1.0,8.161841979949875,-3.3715332080200495,-3.6784503759398492,-0.03157105263157897,-0.025143107769423637,0.028136591478696654
0.373,1.0,8.161812030075188,-3.3715751879699245,-3.6784744360902253,-0.03156842105263161,-0.02513533834586474,0.0281451127819548
0.374,1.0,8.161782080200501,-3.371617167919799,-3.6784984962406013,-0.031565789473684235,-0.025127568922305846,0.028153634085212945
0.375,1.0,8.161752130325816,-3.3716591478696736,-3.678522556390977,-0.03156315789473687,-0.025119799498746948,0.02816215538847109
0.376,1.0,8.161722180451129,-3.3717011278195486,-3.678546616541353,-0.0315605263157895,-0.02511203007518805,0.028170676691729235
0.377,1.0,8.161692230576442,-3.371743107769423,-3.678570676691729,-0.03155789473684213,-0.025104260651629153,0.02817919799498738
0.378,1.0,8.161662280701755,-3.3717850877192976,-3.678594736842105,-0.03155526315789476,-0.025096491228070256,0.028187719298245525
0.379,1.0,8.161632330827068,-3.3718270676691726,-3.6786187969924806,-0.031552631578947395,-0.025088721804511358,0.02819624060150367
0.38,1.0,8.161602380952381,-3.371869047619047,-3.6786428571428567,-0.03155000000000003,-0.02508095238095246,0.028204761904761816
0.381,1.0,8.161572431077694,-3.3719110275689217,-3.6786669172932327,-0.03154736842105266,-0.025073182957393563,0.02821328320801996
0.382,1.0,8.161542481203007,-3.3719530075187967,-3.6786909774436087,-0.03154473684210529,-0.025065413533834666,0.02822180451127811
0.383,1.0,8.161512531328322,-3.371994987468671,-3.6787150375939848,-0.03154210526315792,-0.025057644110275768,0.028230325814536255
0.384,1.0,8.161482581453635,-3.3720369674185457,-3.6787390977443604,-0.031539473684210555,-0.02504987468671687,0.0282388471177944
0.385,1.0,8.161452631578948,-3.3720789473684207,-3.6787631578947364,-0.03153684210526318,-0.025042105263157973,0.028247368421052545
0.386,1.0,8.161422681704261,-3.3721209273182953,-3.6787872180451124,-0.03153421052631582,-0.025034335839599076,0.02825588972431069
0.387,1.0,8.161392731829574,-3.37216290726817,-3.6788112781954885,-0.031531578947368445,-0.02502656641604018,0.028264411027568836
0.388,1.0,8.161362781954887,-3.372204887218045,-3.6788353383458645,-0.03152894736842108,-0.025018796992481284,0.02827293233082698
0.389,1.0,8.1613328320802,-3.3722468671679193,-3.67885939849624,-0.03152631578947371,-0.025011027568922387,0.028281453634085126
0.39,1.0,8.161302882205515,-3.372288847117794,-3.678883458646616,-0.03152368421052634,-0.02500325814536349,0.02828997493734327
0.391,1.0,8.161272932330828,-3.372330827067669,-3.678907518796992,-0.03152105263157897,-0.02499548872180459,0.028298496240601417
0.392,1.0,8.161242982456141,-3.3723728070175434,-3.678931578947368,-0.031518421052631605,-0.024987719298245694,0.028307017543859562
0.393,1.0,8.161213032581454,-3.372414786967418,-3.678955639097744,-0.03151578947368424,-0.024979949874686797,0.028315538847117707
0.394,1.0,8.161183082706767,-3.372456766917293,-3.67897969924812,-0.03151315789473687,-0.0249721804511279,0.028324060150375852
0.395,1.0,8.16115313283208,-3.3724987468671674,-3.679003759398496,-0.0315105263157895,-0.024964411027569,0.028332581453633997
0.396,1.0,8.161123182957393,-3.372540726817042,-3.679027819548872,-0.03150789473684213,-0.024956641604010104,0.028341102756892143
0.397,1.0,8.161093233082708,-3.372582706766917,-3.679051879699248,-0.031505263157894765,-0.024948872180451206,0.028349624060150288
0.398,1.0,8.161063283208021,-3.3726246867167915,-3.6790759398496236,-0.03150263157894739,-0.024941102756892312,0.028358145363408433
0.399,1.0,8.161033333333334,-3.372666666666666,-3.6790999999999996,-0.03150000000000003,-0.02493333333333341,0.02836666666666658
0.4,1.0,8.161003383458647,-3.372708646616541,-3.6791240601503756,-0.031497368421052656,-0.024925563909774517,0.028375187969924724
0.401,1.0,8.16097343358396,-3.3727506265664156,-3.6791481203007517,-0.03149473684210529,-0.02491779448621562,0.02838370927318287
0.402,1.0,8.160943483709273,-3.37279260651629,-3.6791721804511273,-0.03149210526315792,-0.024910025062656722,0.028392230576441014
0.403,1.0,8.160913533834586,-3.372834586466165,-3.6791962406015033,-0.03148947368421055,-0.024902255639097825,0.028400751879699163
0.404,1.0,8.160883583959901,-3.3728765664160396,-3.6792203007518793,-0.03148684210526318,-0.024894486215538927,0.028409273182957308
0.405,1.0,8.160853634085214,-3.372918546365914,-3.6792443609022554,-0.031484210526315816,-0.02488671679198003,0.028417794486215453
0.406,1.0,8.160823684210527,-3.372960526315789,-3.6792684210526314,-0.03148157894736845,-0.024878947368421132,0.028426315789473598
0.40700000000000003,1.0,8.16079373433584,-3.3730025062656637,-3.679292481203007,-0.03147894736842108,-0.024871177944862235,0.028434837092731743
0.40800000000000003,1.0,8.160763784461153,-3.373044486215538,-3.679316541353383,-0.03147631578947371,-0.024863408521303337,0.02844335839598989
0.40900000000000003,1.0,8.160733834586466,-3.373086466165413,-3.679340601503759,-0.03147368421052634,-0.02485563909774444,0.028451879699248034
0.41000000000000003,1.0,8.16070388471178,-3.3731284461152877,-3.679364661654135,-0.031471052631578976,-0.024847869674185542,0.02846040100250618
0.41100000000000003,1.0,8.160673934837092,-3.3731704260651623,-3.6793887218045107,-0.031468421052631604,-0.02484010025062665,0.028468922305764324
0.41200000000000003,1.0,8.160643984962407,-3.3732124060150372,-3.6794127819548867,-0.03146578947368424,-0.024832330827067747,0.02847744360902247
0.41300000000000003,1.0,8.16061403508772,-3.373254385964912,-3.679436842105263,-0.031463157894736866,-0.024824561403508853,0.028485964912280615
0.41400000000000003,1.0,8.160584085213033,-3.3732963659147863,-3.679460902255639,-0.0314605263157895,-0.024816791979949956,0.02849448621553876
0.41500000000000004,1.0,8.160554135338346,-3.3733383458646613,-3.679484962406015,-0.03145789473684213,-0.024809022556391058,0.028503007518796905
0.41600000000000004,1.0,8.16052418546366,-3.373380325814536,-3.6795090225563905,-0.031455263157894764,-0.02480125313283216,0.02851152882205505
0.417,1.0,8.160494235588972,-3.3734223057644104,-3.6795330827067665,-0.03145263157894739,-0.024793483709273263,0.028520050125313195
0.418,1.0,8.160464285714285,-3.3734642857142854,-3.6795571428571425,-0.03145000000000003,-0.024785714285714366,0.02852857142857134
0.419,1.0,8.1604343358396,-3.37350626566416,-3.6795812030075186,-0.03144736842105266,-0.024777944862155468,0.028537092731829486
0.42,1.0,8.160404385964913,-3.3735482456140344,-3.679605263157894,-0.03144473684210529,-0.02477017543859657,0.02854561403508763
0.421,1.0,8.160374436090226,-3.3735902255639094,-3.67962932330827,-0.031442105263157924,-0.024762406015037673,0.028554135338345776
0.422,1.0,8.16034448621554,-3.373632205513784,-3.6796533834586462,-0.03143947368421055,-0.02475463659147878,0.02856265664160392
0.423,1.0,8.160314536340852,-3.3736741854636585,-3.6796774436090223,-0.03143684210526319,-0.024746867167919878,0.028571177944862067
0.424,1.0,8.160284586466165,-3.3737161654135335,-3.6797015037593983,-0.031434210526315814,-0.024739097744360984,0.028579699248120212
0.425,1.0,8.160254636591478,-3.373758145363408,-3.679725563909774,-0.03143157894736845,-0.024731328320802087,0.028588220551378357
0.426,1.0,8.160224686716793,-3.3738001253132825,-3.67974962406015,-0.03142894736842108,-0.02472355889724319,0.028596741854636502
0.427,1.0,8.160194736842106,-3.3738421052631575,-3.679773684210526,-0.03142631578947371,-0.02471578947368429,0.028605263157894648
0.428,1.0,8.16016478696742,-3.373884085213032,-3.679797744360902,-0.03142368421052634,-0.024708020050125394,0.028613784461152793
0.429,1.0,8.160134837092732,-3.3739260651629066,-3.679821804511278,-0.031421052631578975,-0.024700250626566497,0.028622305764410938
0.43,1.0,8.160104887218045,-3.3739680451127816,-3.6798458646616536,-0.0314184210526316,-0.0246924812030076,0.028630827067669083
0.431,1.0,8.160074937343358,-3.374010025062656,-3.6798699248120297,-0.03141578947368424,-0.0246847117794487,0.02863934837092723
0.432,1.0,8.160044987468671,-3.3740520050125307,-3.6798939849624057,-0.03141315789473687,-0.024676942355889804,0.028647869674185374
0.433,1.0,8.160015037593986,-3.3740939849624056,-3.6799180451127818,-0.0314105263157895,-0.024669172932330907,0.02865639097744352
0.434,1.0,8.1599850877193,-3.37413596491228,-3.6799421052631573,-0.031407894736842135,-0.02466140350877201,0.028664912280701667
0.435,1.0,8.159955137844612,-3.3741779448621547,-3.6799661654135334,-0.03140526315789476,-0.024653634085213115,0.028673433583959813
0.436,1.0,8.159925187969925,-3.3742199248120297,-3.6799902255639094,-0.0314026315789474,-0.024645864661654217,0.028681954887217958
0.437,1.0,8.159895238095238,-3.3742619047619042,-3.6800142857142855,-0.031400000000000025,-0.02463809523809532,0.028690476190476103
0.438,1.0,8.159865288220551,-3.374303884711779,-3.6800383458646615,-0.03139736842105266,-0.024630325814536422,0.02869899749373425
0.439,1.0,8.159835338345864,-3.3743458646616538,-3.680062406015037,-0.03139473684210529,-0.024622556390977525,0.028707518796992394
0.44,1.0,8.159805388471177,-3.3743878446115283,-3.680086466165413,-0.03139210526315792,-0.024614786967418627,0.02871604010025054
0.441,1.0,8.159775438596492,-3.374429824561403,-3.680110526315789,-0.03138947368421055,-0.02460701754385973,0.028724561403508684
0.442,1.0,8.159745488721805,-3.374471804511278,-3.680134586466165,-0.031386842105263185,-0.024599248120300832,0.02873308270676683
0.443,1.0,8.159715538847118,-3.3745137844611524,-3.680158646616541,-0.03138421052631581,-0.024591478696741935,0.028741604010024974
0.444,1.0,8.159685588972431,-3.374555764411027,-3.680182706766917,-0.03138157894736845,-0.024583709273183037,0.02875012531328312
0.445,1.0,8.159655639097744,-3.374597744360902,-3.680206766917293,-0.031378947368421076,-0.02457593984962414,0.028758646616541265
0.446,1.0,8.159625689223057,-3.3746397243107764,-3.680230827067669,-0.03137631578947371,-0.024568170426065242,0.02876716791979941
0.447,1.0,8.15959573934837,-3.374681704260651,-3.680254887218045,-0.031373684210526345,-0.024560401002506345,0.028775689223057555
0.448,1.0,8.159565789473685,-3.374723684210526,-3.6802789473684205,-0.03137105263157897,-0.02455263157894745,0.0287842105263157
0.449,1.0,8.159535839598998,-3.3747656641604005,-3.6803030075187966,-0.03136842105263161,-0.024544862155388553,0.028792731829573846
0.45,1.0,8.159505889724311,-3.374807644110275,-3.6803270676691726,-0.031365789473684236,-0.024537092731829656,0.02880125313283199
0.451,1.0,8.159475939849624,-3.37484962406015,-3.6803511278195487,-0.03136315789473687,-0.02452932330827076,0.028809774436090136
0.452,1.0,8.159445989974937,-3.3748916040100245,-3.6803751879699242,-0.0313605263157895,-0.02452155388471186,0.02881829573934828
0.453,1.0,8.15941604010025,-3.374933583959899,-3.6803992481203003,-0.03135789473684213,-0.024513784461152963,0.028826817042606426
0.454,1.0,8.159386090225563,-3.374975563909774,-3.6804233082706763,-0.03135526315789476,-0.024506015037594066,0.02883533834586457
0.455,1.0,8.159356140350878,-3.3750175438596486,-3.6804473684210524,-0.031352631578947396,-0.02449824561403517,0.028843859649122717
0.456,1.0,8.159326190476191,-3.375059523809523,-3.6804714285714284,-0.031350000000000024,-0.02449047619047627,0.028852380952380866
0.457,1.0,8.159296240601504,-3.375101503759398,-3.680495488721804,-0.03134736842105266,-0.024482706766917373,0.02886090225563901
0.458,1.0,8.159266290726817,-3.3751434837092726,-3.68051954887218,-0.031344736842105286,-0.024474937343358476,0.028869423558897156
0.459,1.0,8.15923634085213,-3.375185463659147,-3.680543609022556,-0.03134210526315792,-0.024467167919799578,0.0288779448621553
0.46,1.0,8.159206390977443,-3.375227443609022,-3.680567669172932,-0.031339473684210556,-0.02445939849624068,0.028886466165413446
0.461,1.0,8.159176441102757,-3.3752694235588967,-3.680591729323308,-0.031336842105263184,-0.024451629072681787,0.02889498746867159
0.462,1.0,8.159146491228071,-3.3753114035087712,-3.6806157894736837,-0.03133421052631582,-0.02444385964912289,0.028903508771929737
0.463,1.0,8.159116541353384,-3.375353383458646,-3.6806398496240598,-0.031331578947368446,-0.02443609022556399,0.028912030075187882
0.464,1.0,8.159086591478697,-3.3753953634085208,-3.680663909774436,-0.03132894736842108,-0.024428320802005094,0.028920551378446027
0.465,1.0,8.15905664160401,-3.3754373433583957,-3.680687969924812,-0.03132631578947371,-0.024420551378446197,0.028929072681704172
0.466,1.0,8.159026691729323,-3.3754793233082703,-3.6807120300751874,-0.031323684210526344,-0.0244127819548873,0.028937593984962318
0.467,1.0,8.158996741854637,-3.375521303258145,-3.6807360902255635,-0.03132105263157897,-0.0244050125313284,0.028946115288220463
0.468,1.0,8.15896679197995,-3.37556328320802,-3.6807601503759395,-0.031318421052631606,-0.024397243107769504,0.028954636591478608
0.46900000000000003,1.0,8.158936842105263,-3.3756052631578943,-3.6807842105263155,-0.031315789473684234,-0.024389473684210607,0.028963157894736753
0.47000000000000003,1.0,8.158906892230577,-3.375647243107769,-3.6808082706766916,-0.03131315789473687,-0.02438170426065171,0.0289716791979949
0.47100000000000003,1.0,8.15887694235589,-3.375689223057644,-3.680832330827067,-0.0313105263157895,-0.02437393483709281,0.028980200501253044
0.47200000000000003,1.0,8.158846992481203,-3.3757312030075184,-3.680856390977443,-0.03130789473684213,-0.024366165413533918,0.02898872180451119
0.47300000000000003,1.0,8.158817042606517,-3.375773182957393,-3.6808804511278193,-0.03130526315789477,-0.024358395989975017,0.028997243107769334
0.47400000000000003,1.0,8.15878709273183,-3.375815162907268,-3.6809045112781953,-0.031302631578947394,-0.024350626566416123,0.02900576441102748
0.47500000000000003,1.0,8.158757142857143,-3.3758571428571424,-3.680928571428571,-0.03130000000000003,-0.024342857142857225,0.029014285714285624
0.47600000000000003,1.0,8.158727192982456,-3.375899122807017,-3.680952631578947,-0.03129736842105266,-0.024335087719298328,0.02902280701754377
0.47700000000000004,1.0,8.15869724310777,-3.375941102756892,-3.680976691729323,-0.03129473684210529,-0.02432731829573943,0.029031328320801915
0.47800000000000004,1.0,8.158667293233083,-3.3759830827067665,-3.681000751879699,-0.03129210526315792,-0.024319548872180533,0.02903984962406006
0.47900000000000004,1.0,8.158637343358397,-3.376025062656641,-3.681024812030075,-0.031289473684210554,-0.024311779448621635,0.029048370927318205
0.48,1.0,8.15860739348371,-3.376067042606516,-3.6810488721804506,-0.03128684210526318,-0.024304010025062737,0.02905689223057635
0.481,1.0,8.158577443609023,-3.3761090225563906,-3.6810729323308267,-0.03128421052631582,-0.02429624060150384,0.029065413533834496
0.482,1.0,8.158547493734336,-3.376151002506265,-3.6810969924812027,-0.031281578947368445,-0.024288471177944942,0.02907393483709264
0.483,1.0,8.158517543859649,-3.37619298245614,-3.6811210526315787,-0.03127894736842108,-0.02428070175438605,0.029082456140350786
0.484,1.0,8.158487593984963,-3.3762349624060146,-3.6811451127819543,-0.03127631578947371,-0.024272932330827147,0.02909097744360893
0.485,1.0,8.158457644110277,-3.376276942355889,-3.6811691729323304,-0.03127368421052634,-0.024265162907268253,0.029099498746867077
0.486,1.0,8.15842769423559,-3.376318922305764,-3.6811932330827064,-0.03127105263157898,-0.024257393483709356,0.029108020050125222
0.487,1.0,8.158397744360903,-3.3763609022556387,-3.6812172932330824,-0.031268421052631605,-0.02424962406015046,0.02911654135338337
0.488,1.0,8.158367794486216,-3.376402882205513,-3.6812413533834585,-0.03126578947368424,-0.02424185463659156,0.029125062656641516
0.489,1.0,8.158337844611529,-3.376444862155388,-3.681265413533834,-0.03126315789473687,-0.024234085213032663,0.02913358395989966
0.49,1.0,8.158307894736842,-3.3764868421052627,-3.68128947368421,-0.0312605263157895,-0.024226315789473766,0.029142105263157806
0.491,1.0,8.158277944862157,-3.3765288220551373,-3.681313533834586,-0.03125789473684213,-0.02421854636591487,0.02915062656641595
0.492,1.0,8.15824799498747,-3.3765708020050123,-3.681337593984962,-0.031255263157894765,-0.02421077694235597,0.029159147869674096
0.493,1.0,8.158218045112783,-3.376612781954887,-3.681361654135338,-0.03125263157894739,-0.024203007518797073,0.02916766917293224
0.494,1.0,8.158188095238096,-3.3766547619047613,-3.681385714285714,-0.03125000000000003,-0.024195238095238176,0.029176190476190387
0.495,1.0,8.158158145363409,-3.3766967418546363,-3.68140977443609,-0.03124736842105266,-0.02418746867167928,0.029184711779448532
0.496,1.0,8.158128195488722,-3.376738721804511,-3.681433834586466,-0.03124473684210529,-0.024179699248120384,0.029193233082706677
0.497,1.0,8.158098245614035,-3.3767807017543854,-3.681457894736842,-0.03124210526315792,-0.024171929824561487,0.029201754385964823
0.498,1.0,8.158068295739348,-3.3768226817042604,-3.6814819548872175,-0.031239473684210553,-0.02416416040100259,0.029210275689222968
0.499,1.0,8.158038345864663,-3.376864661654135,-3.6815060150375936,-0.031236842105263184,-0.024156390977443692,0.029218796992481113
0.5,1.0,8.158008395989976,-3.3769066416040094,-3.6815300751879696,-0.031234210526315816,-0.024148621553884794,0.029227318295739258
0.501,1.0,8.157978446115289,-3.3769486215538844,-3.6815541353383456,-0.031231578947368447,-0.024140852130325897,0.029235839598997403
0.502,1.0,8.157948496240602,-3.376990601503759,-3.6815781954887217,-0.03122894736842108,-0.024133082706767,0.02924436090225555
0.503,1.0,8.157918546365915,-3.3770325814536335,-3.6816022556390973,-0.03122631578947371,-0.0241253132832081,0.029252882205513694
0.504,1.0,8.157888596491228,-3.3770745614035085,-3.6816263157894733,-0.03122368421052634,-0.024117543859649204,0.02926140350877184
0.505,1.0,8.15785864661654,-3.377116541353383,-3.6816503759398493,-0.031221052631578976,-0.024109774436090307,0.029269924812029984
0.506,1.0,8.157828696741856,-3.3771585213032576,-3.6816744360902254,-0.031218421052631607,-0.02410200501253141,0.02927844611528813
0.507,1.0,8.157798746867169,-3.3772005012531325,-3.681698496240601,-0.03121578947368424,-0.02409423558897251,0.029286967418546275
0.508,1.0,8.157768796992482,-3.377242481203007,-3.681722556390977,-0.03121315789473687,-0.024086466165413614,0.029295488721804423
0.509,1.0,8.157738847117795,-3.3772844611528816,-3.681746616541353,-0.0312105263157895,-0.02407869674185472,0.02930401002506257
0.51,1.0,8.157708897243108,-3.3773264411027566,-3.681770676691729,-0.031207894736842132,-0.024070927318295823,0.029312531328320714
0.511,1.0,8.15767894736842,-3.377368421052631,-3.681794736842105,-0.031205263157894764,-0.024063157894736925,0.02932105263157886
0.512,1.0,8.157648997493734,-3.3774104010025057,-3.6818187969924807,-0.031202631578947395,-0.024055388471178028,0.029329573934837004
0.513,1.0,8.157619047619049,-3.3774523809523807,-3.6818428571428568,-0.031200000000000026,-0.02404761904761913,0.02933809523809515
0.514,1.0,8.157589097744362,-3.377494360902255,-3.681866917293233,-0.031197368421052658,-0.024039849624060233,0.029346616541353295
0.515,1.0,8.157559147869675,-3.3775363408521297,-3.681890977443609,-0.03119473684210529,-0.024032080200501335,0.02935513784461144
0.516,1.0,8.157529197994988,-3.3775783208020047,-3.6819150375939844,-0.03119210526315792,-0.024024310776942438,0.029363659147869585
0.517,1.0,8.1574992481203,-3.3776203007518792,-3.6819390977443605,-0.03118947368421055,-0.02401654135338354,0.02937218045112773
0.518,1.0,8.157469298245614,-3.377662280701754,-3.6819631578947365,-0.031186842105263186,-0.024008771929824643,0.029380701754385875
0.519,1.0,8.157439348370927,-3.3777042606516288,-3.6819872180451125,-0.031184210526315818,-0.024001002506265745,0.02938922305764402
0.52,1.0,8.157409398496242,-3.3777462406015033,-3.6820112781954886,-0.03118157894736845,-0.023993233082706848,0.029397744360902166
0.521,1.0,8.157379448621555,-3.377788220551378,-3.682035338345864,-0.03117894736842108,-0.02398546365914795,0.02940626566416031
0.522,1.0,8.157349498746868,-3.377830200501253,-3.68205939849624,-0.03117631578947371,-0.023977694235589056,0.029414786967418456
0.523,1.0,8.15731954887218,-3.3778721804511274,-3.6820834586466162,-0.031173684210526343,-0.02396992481203016,0.0294233082706766
0.524,1.0,8.157289598997494,-3.377914160401002,-3.6821075187969923,-0.031171052631578974,-0.02396215538847126,0.029431829573934747
0.525,1.0,8.157259649122807,-3.377956140350877,-3.682131578947368,-0.031168421052631606,-0.023954385964912363,0.029440350877192892
0.526,1.0,8.15722969924812,-3.3779981203007514,-3.682155639097744,-0.031165789473684237,-0.023946616541353466,0.029448872180451037
0.527,1.0,8.157199749373433,-3.378040100250626,-3.68217969924812,-0.03116315789473687,-0.02393884711779457,0.029457393483709182
0.528,1.0,8.157169799498748,-3.378082080200501,-3.682203759398496,-0.0311605263157895,-0.02393107769423567,0.029465914786967327
0.529,1.0,8.15713984962406,-3.3781240601503755,-3.682227819548872,-0.03115789473684213,-0.023923308270676773,0.029474436090225473
0.53,1.0,8.157109899749374,-3.37816604010025,-3.6822518796992476,-0.031155263157894762,-0.023915538847117876,0.029482957393483618
0.531,1.0,8.157079949874687,-3.378208020050125,-3.6822759398496236,-0.031152631578947397,-0.02390776942355898,0.029491478696741763
0.532,1.0,8.15705,-3.3782499999999995,-3.6822999999999997,-0.03115000000000003,-0.02390000000000008,0.029499999999999908
0.533,1.0,8.157020050125313,-3.378291979949874,-3.6823240601503757,-0.03114736842105266,-0.023892230576441183,0.029508521303258053
0.534,1.0,8.156990100250626,-3.378333959899749,-3.6823481203007513,-0.03114473684210529,-0.023884461152882286,0.0295170426065162
0.535,1.0,8.15696015037594,-3.3783759398496236,-3.6823721804511274,-0.031142105263157922,-0.023876691729323392,0.029525563909774344
0.536,1.0,8.156930200501254,-3.378417919799498,-3.6823962406015034,-0.031139473684210554,-0.023868922305764494,0.029534085213032493
0.537,1.0,8.156900250626567,-3.378459899749373,-3.6824203007518794,-0.031136842105263185,-0.023861152882205597,0.029542606516290638
0.538,1.0,8.15687030075188,-3.3785018796992476,-3.6824443609022555,-0.031134210526315816,-0.0238533834586467,0.029551127819548783
0.539,1.0,8.156840350877193,-3.378543859649122,-3.682468421052631,-0.031131578947368448,-0.023845614035087802,0.029559649122806928
0.54,1.0,8.156810401002506,-3.378585839598997,-3.682492481203007,-0.03112894736842108,-0.023837844611528904,0.029568170426065073
0.541,1.0,8.156780451127819,-3.3786278195488717,-3.682516541353383,-0.03112631578947371,-0.023830075187970007,0.02957669172932322
0.542,1.0,8.156750501253134,-3.3786697994987462,-3.682540601503759,-0.03112368421052634,-0.02382230576441111,0.029585213032581364
0.543,1.0,8.156720551378447,-3.378711779448621,-3.682564661654135,-0.031121052631578973,-0.023814536340852212,0.02959373433583951
0.544,1.0,8.15669060150376,-3.3787537593984958,-3.682588721804511,-0.031118421052631604,-0.023806766917293314,0.029602255639097654
0.545,1.0,8.156660651629073,-3.3787957393483703,-3.682612781954887,-0.03111578947368424,-0.023798997493734417,0.0296107769423558
0.546,1.0,8.156630701754386,-3.3788377192982453,-3.682636842105263,-0.03111315789473687,-0.023791228070175523,0.029619298245613945
0.547,1.0,8.156600751879699,-3.37887969924812,-3.682660902255639,-0.0311105263157895,-0.02378345864661662,0.02962781954887209
0.548,1.0,8.156570802005012,-3.3789216791979944,-3.6826849624060145,-0.031107894736842133,-0.023775689223057728,0.029636340852130235
0.549,1.0,8.156540852130327,-3.3789636591478693,-3.6827090225563905,-0.031105263157894764,-0.02376791979949883,0.02964486215538838
0.55,1.0,8.15651090225564,-3.379005639097744,-3.6827330827067666,-0.031102631578947396,-0.023760150375939933,0.029653383458646525
0.551,1.0,8.156480952380953,-3.3790476190476184,-3.6827571428571426,-0.031100000000000027,-0.023752380952381035,0.02966190476190467
0.552,1.0,8.156451002506266,-3.3790895989974934,-3.6827812030075187,-0.031097368421052658,-0.023744611528822138,0.029670426065162816
0.553,1.0,8.156421052631579,-3.379131578947368,-3.6828052631578942,-0.03109473684210529,-0.02373684210526324,0.02967894736842096
0.554,1.0,8.156391102756892,-3.3791735588972425,-3.6828293233082703,-0.03109210526315792,-0.023729072681704343,0.029687468671679106
0.555,1.0,8.156361152882205,-3.3792155388471175,-3.6828533834586463,-0.031089473684210552,-0.023721303258145445,0.02969598997493725
0.556,1.0,8.156331203007518,-3.379257518796992,-3.6828774436090224,-0.031086842105263184,-0.023713533834586548,0.029704511278195397
0.557,1.0,8.156301253132833,-3.3792994987468665,-3.682901503759398,-0.031084210526315815,-0.02370576441102765,0.029713032581453542
0.558,1.0,8.156271303258146,-3.3793414786967415,-3.682925563909774,-0.031081578947368446,-0.023697994987468753,0.02972155388471169
0.559,1.0,8.156241353383459,-3.379383458646616,-3.68294962406015,-0.03107894736842108,-0.02369022556390986,0.029730075187969836
0.56,1.0,8.156211403508772,-3.3794254385964906,-3.682973684210526,-0.031076315789473712,-0.02368245614035096,0.02973859649122798
0.561,1.0,8.156181453634085,-3.3794674185463656,-3.682997744360902,-0.031073684210526344,-0.023674686716792064,0.029747117794486126
0.562,1.0,8.156151503759398,-3.37950939849624,-3.6830218045112777,-0.031071052631578975,-0.023666917293233166,0.02975563909774427
0.5630000000000001,1.0,8.156121553884711,-3.3795513784461146,-3.6830458646616537,-0.031068421052631606,-0.02365914786967427,0.029764160401002417
0.5640000000000001,1.0,8.156091604010026,-3.3795933583959896,-3.6830699248120298,-0.031065789473684238,-0.02365137844611537,0.029772681704260562
0.5650000000000001,1.0,8.156061654135339,-3.379635338345864,-3.683093984962406,-0.03106315789473687,-0.023643609022556474,0.029781203007518707
0.5660000000000001,1.0,8.156031704260652,-3.3796773182957387,-3.6831180451127814,-0.0310605263157895,-0.023635839598997576,0.029789724310776852
0.5670000000000001,1.0,8.156001754385965,-3.3797192982456137,-3.6831421052631574,-0.03105789473684213,-0.02362807017543868,0.029798245614034997
0.5680000000000001,1.0,8.155971804511278,-3.379761278195488,-3.6831661654135335,-0.031055263157894763,-0.02362030075187978,0.029806766917293143
0.5690000000000001,1.0,8.155941854636591,-3.3798032581453628,-3.6831902255639095,-0.031052631578947394,-0.023612531328320883,0.029815288220551288
0.5700000000000001,1.0,8.155911904761904,-3.3798452380952377,-3.6832142857142856,-0.031050000000000025,-0.023604761904761986,0.029823809523809433
0.5710000000000001,1.0,8.155881954887219,-3.3798872180451123,-3.683238345864661,-0.031047368421052657,-0.02359699248120309,0.02983233082706758
0.5720000000000001,1.0,8.155852005012532,-3.379929197994987,-3.683262406015037,-0.03104473684210529,-0.023589223057644194,0.029840852130325723
0.5730000000000001,1.0,8.155822055137845,-3.379971177944862,-3.683286466165413,-0.031042105263157923,-0.023581453634085297,0.02984937343358387
0.5740000000000001,1.0,8.155792105263158,-3.3800131578947363,-3.6833105263157893,-0.031039473684210554,-0.0235736842105264,0.029857894736842014
0.5750000000000001,1.0,8.155762155388471,-3.380055137844611,-3.683334586466165,-0.031036842105263186,-0.023565914786967502,0.02986641604010016
0.5760000000000001,1.0,8.155732205513784,-3.380097117794486,-3.683358646616541,-0.031034210526315817,-0.023558145363408604,0.029874937343358304
0.577,1.0,8.155702255639097,-3.3801390977443604,-3.683382706766917,-0.031031578947368448,-0.023550375939849707,0.02988345864661645
0.578,1.0,8.155672305764412,-3.380181077694235,-3.683406766917293,-0.03102894736842108,-0.02354260651629081,0.029891979949874595
0.579,1.0,8.155642355889725,-3.38022305764411,-3.683430827067669,-0.03102631578947371,-0.023534837092731912,0.02990050125313274
0.58,1.0,8.155612406015038,-3.3802650375939844,-3.6834548872180446,-0.031023684210526342,-0.023527067669173014,0.029909022556390885
0.581,1.0,8.155582456140351,-3.380307017543859,-3.6834789473684206,-0.031021052631578973,-0.02351929824561412,0.02991754385964903
0.582,1.0,8.155552506265664,-3.380348997493734,-3.6835030075187967,-0.031018421052631605,-0.023511528822055223,0.029926065162907176
0.583,1.0,8.155522556390977,-3.3803909774436085,-3.6835270676691727,-0.03101578947368424,-0.023503759398496325,0.02993458646616532
0.584,1.0,8.15549260651629,-3.380432957393483,-3.6835511278195487,-0.03101315789473687,-0.023495989974937428,0.029943107769423466
0.585,1.0,8.155462656641603,-3.380474937343358,-3.6835751879699243,-0.031010526315789502,-0.02348822055137853,0.02995162907268161
0.586,1.0,8.155432706766918,-3.3805169172932326,-3.6835992481203004,-0.031007894736842134,-0.023480451127819633,0.029960150375939756
0.587,1.0,8.155402756892231,-3.380558897243107,-3.6836233082706764,-0.031005263157894765,-0.023472681704260735,0.0299686716791979
0.588,1.0,8.155372807017544,-3.380600877192982,-3.6836473684210524,-0.031002631578947396,-0.023464912280701838,0.029977192982456047
0.589,1.0,8.155342857142857,-3.3806428571428566,-3.683671428571428,-0.031000000000000028,-0.02345714285714294,0.029985714285714192
0.59,1.0,8.15531290726817,-3.380684837092731,-3.683695488721804,-0.03099736842105266,-0.023449373433584043,0.029994235588972337
0.591,1.0,8.155282957393483,-3.380726817042606,-3.68371954887218,-0.03099473684210529,-0.023441604010025145,0.030002756892230482
0.592,1.0,8.155253007518796,-3.3807687969924807,-3.683743609022556,-0.03099210526315792,-0.023433834586466248,0.030011278195488628
0.593,1.0,8.155223057644111,-3.380810776942355,-3.683767669172932,-0.030989473684210553,-0.02342606516290735,0.030019799498746776
0.594,1.0,8.155193107769424,-3.38085275689223,-3.683791729323308,-0.030986842105263184,-0.023418295739348456,0.03002832080200492
0.595,1.0,8.155163157894737,-3.3808947368421047,-3.683815789473684,-0.030984210526315815,-0.02341052631578956,0.030036842105263067
0.596,1.0,8.15513320802005,-3.3809367167919793,-3.68383984962406,-0.030981578947368447,-0.02340275689223066,0.030045363408521212
0.597,1.0,8.155103258145363,-3.3809786967418543,-3.683863909774436,-0.030978947368421078,-0.023394987468671764,0.030053884711779357
0.598,1.0,8.155073308270676,-3.381020676691729,-3.6838879699248115,-0.030976315789473713,-0.023387218045112866,0.030062406015037502
0.599,1.0,8.15504335839599,-3.3810626566416033,-3.6839120300751875,-0.030973684210526344,-0.02337944862155397,0.030070927318295648
0.6,1.0,8.155013408521304,-3.3811046365914783,-3.6839360902255636,-0.030971052631578976,-0.02337167919799507,0.030079448621553793
0.601,1.0,8.154983458646617,-3.381146616541353,-3.6839601503759396,-0.030968421052631607,-0.023363909774436174,0.030087969924811938
0.602,1.0,8.15495350877193,-3.3811885964912274,-3.6839842105263156,-0.030965789473684238,-0.023356140350877276,0.030096491228070083
0.603,1.0,8.154923558897243,-3.3812305764411024,-3.6840082706766912,-0.03096315789473687,-0.02334837092731838,0.03010501253132823
0.604,1.0,8.154893609022556,-3.381272556390977,-3.6840323308270673,-0.0309605263157895,-0.02334060150375948,0.030113533834586374
0.605,1.0,8.15486365914787,-3.3813145363408514,-3.6840563909774433,-0.030957894736842132,-0.023332832080200584,0.03012205513784452
0.606,1.0,8.154833709273182,-3.3813565162907264,-3.6840804511278193,-0.030955263157894763,-0.023325062656641686,0.030130576441102664
0.607,1.0,8.154803759398497,-3.381398496240601,-3.684104511278195,-0.030952631578947395,-0.023317293233082792,0.03013909774436081
0.608,1.0,8.15477380952381,-3.381440476190476,-3.684128571428571,-0.030950000000000026,-0.023309523809523894,0.030147619047618954
0.609,1.0,8.154743859649123,-3.3814824561403505,-3.684152631578947,-0.030947368421052657,-0.023301754385964997,0.0301561403508771
0.61,1.0,8.154713909774436,-3.381524436090225,-3.684176691729323,-0.03094473684210529,-0.0232939849624061,0.030164661654135245
0.611,1.0,8.15468395989975,-3.3815664160400996,-3.684200751879699,-0.030942105263157924,-0.023286215538847202,0.03017318295739339
0.612,1.0,8.154654010025062,-3.3816083959899745,-3.6842248120300747,-0.030939473684210555,-0.023278446115288304,0.03018170426065154
0.613,1.0,8.154624060150375,-3.381650375939849,-3.6842488721804507,-0.030936842105263186,-0.023270676691729407,0.030190225563909684
0.614,1.0,8.154594110275688,-3.381692355889724,-3.6842729323308268,-0.030934210526315817,-0.02326290726817051,0.03019874686716783
0.615,1.0,8.154564160401003,-3.3817343358395986,-3.684296992481203,-0.03093157894736845,-0.023255137844611612,0.030207268170425974
0.616,1.0,8.154534210526316,-3.381776315789473,-3.6843210526315784,-0.03092894736842108,-0.023247368421052714,0.03021578947368412
0.617,1.0,8.15450426065163,-3.381818295739348,-3.6843451127819544,-0.03092631578947371,-0.023239598997493817,0.030224310776942265
0.618,1.0,8.154474310776942,-3.3818602756892227,-3.6843691729323305,-0.030923684210526343,-0.02323182957393492,0.03023283208020041
0.619,1.0,8.154444360902255,-3.381902255639097,-3.6843932330827065,-0.030921052631578974,-0.023224060150376022,0.030241353383458555
0.62,1.0,8.154414411027568,-3.381944235588972,-3.6844172932330825,-0.030918421052631605,-0.023216290726817128,0.0302498746867167
0.621,1.0,8.154384461152882,-3.3819862155388467,-3.684441353383458,-0.030915789473684237,-0.02320852130325823,0.030258395989974846
0.622,1.0,8.154354511278196,-3.3820281954887212,-3.684465413533834,-0.030913157894736868,-0.023200751879699333,0.03026691729323299
0.623,1.0,8.15432456140351,-3.3820701754385962,-3.68448947368421,-0.0309105263157895,-0.023192982456140435,0.030275438596491136
0.624,1.0,8.154294611528822,-3.3821121553884708,-3.6845135338345862,-0.030907894736842134,-0.023185213032581538,0.03028395989974928
0.625,1.0,8.154264661654135,-3.3821541353383453,-3.6845375939849623,-0.030905263157894765,-0.02317744360902264,0.030292481203007426
0.626,1.0,8.154234711779448,-3.3821961152882203,-3.684561654135338,-0.030902631578947397,-0.023169674185463743,0.03030100250626557
0.627,1.0,8.154204761904762,-3.382238095238095,-3.684585714285714,-0.030900000000000028,-0.023161904761904845,0.030309523809523717
0.628,1.0,8.154174812030075,-3.3822800751879694,-3.68460977443609,-0.03089736842105266,-0.023154135338345948,0.030318045112781862
0.629,1.0,8.15414486215539,-3.3823220551378443,-3.684633834586466,-0.03089473684210529,-0.02314636591478705,0.030326566416040007
0.63,1.0,8.154114912280702,-3.382364035087719,-3.6846578947368416,-0.030892105263157922,-0.023138596491228153,0.030335087719298152
0.631,1.0,8.154084962406015,-3.3824060150375934,-3.6846819548872176,-0.030889473684210553,-0.02313082706766926,0.030343609022556298
0.632,1.0,8.154055012531328,-3.3824479949874684,-3.6847060150375937,-0.030886842105263185,-0.023123057644110358,0.030352130325814443
0.633,1.0,8.154025062656642,-3.382489974937343,-3.6847300751879697,-0.030884210526315816,-0.023115288220551464,0.030360651629072588
0.634,1.0,8.153995112781955,-3.3825319548872175,-3.6847541353383457,-0.030881578947368447,-0.023107518796992566,0.030369172932330733
0.635,1.0,8.153965162907268,-3.3825739348370925,-3.6847781954887213,-0.03087894736842108,-0.02309974937343367,0.03037769423558888
0.636,1.0,8.153935213032582,-3.382615914786967,-3.6848022556390974,-0.03087631578947371,-0.02309197994987477,0.030386215538847024
0.637,1.0,8.153905263157895,-3.3826578947368415,-3.6848263157894734,-0.030873684210526345,-0.023084210526315874,0.03039473684210517
0.638,1.0,8.153875313283208,-3.3826998746867165,-3.6848503759398494,-0.030871052631578976,-0.023076441102756976,0.030403258145363314
0.639,1.0,8.153845363408522,-3.382741854636591,-3.684874436090225,-0.030868421052631607,-0.02306867167919808,0.03041177944862146
0.64,1.0,8.153815413533835,-3.3827838345864656,-3.684898496240601,-0.03086578947368424,-0.02306090225563918,0.030420300751879605
0.641,1.0,8.153785463659148,-3.3828258145363406,-3.684922556390977,-0.03086315789473687,-0.023053132832080284,0.03042882205513775
0.642,1.0,8.15375551378446,-3.382867794486215,-3.684946616541353,-0.0308605263157895,-0.023045363408521386,0.030437343358395895
0.643,1.0,8.153725563909774,-3.3829097744360896,-3.684970676691729,-0.030857894736842133,-0.02303759398496249,0.030445864661654044
0.644,1.0,8.153695614035088,-3.3829517543859646,-3.6849947368421048,-0.030855263157894764,-0.023029824561403595,0.03045438596491219
0.645,1.0,8.153665664160402,-3.382993734335839,-3.685018796992481,-0.030852631578947395,-0.023022055137844694,0.030462907268170334
0.646,1.0,8.153635714285715,-3.3830357142857137,-3.685042857142857,-0.030850000000000027,-0.0230142857142858,0.03047142857142848
0.647,1.0,8.153605764411028,-3.3830776942355887,-3.685066917293233,-0.030847368421052658,-0.023006516290726902,0.030479949874686624
0.648,1.0,8.15357581453634,-3.383119674185463,-3.6850909774436085,-0.03084473684210529,-0.022998746867168005,0.03048847117794477
0.649,1.0,8.153545864661654,-3.3831616541353378,-3.6851150375939845,-0.03084210526315792,-0.022990977443609107,0.030496992481202915
0.65,1.0,8.153515914786967,-3.3832036340852127,-3.6851390977443605,-0.030839473684210555,-0.02298320802005021,0.03050551378446106
0.651,1.0,8.153485964912282,-3.3832456140350873,-3.6851631578947366,-0.030836842105263187,-0.022975438596491312,0.030514035087719205
0.652,1.0,8.153456015037595,-3.383287593984962,-3.6851872180451126,-0.030834210526315818,-0.022967669172932415,0.03052255639097735
0.653,1.0,8.153426065162908,-3.383329573934837,-3.685211278195488,-0.03083157894736845,-0.022959899749373517,0.030531077694235496
0.654,1.0,8.15339611528822,-3.3833715538847113,-3.6852353383458643,-0.03082894736842108,-0.02295213032581462,0.03053959899749364
0.655,1.0,8.153366165413534,-3.383413533834586,-3.6852593984962403,-0.030826315789473712,-0.022944360902255725,0.030548120300751786
0.656,1.0,8.153336215538847,-3.383455513784461,-3.6852834586466163,-0.030823684210526343,-0.022936591478696824,0.03055664160400993
0.657,1.0,8.15330626566416,-3.3834974937343354,-3.685307518796992,-0.030821052631578975,-0.02292882205513793,0.030565162907268077
0.658,1.0,8.153276315789475,-3.38353947368421,-3.685331578947368,-0.030818421052631606,-0.02292105263157903,0.03057368421052622
0.659,1.0,8.153246365914788,-3.383581453634085,-3.685355639097744,-0.030815789473684237,-0.022913283208020135,0.030582205513784367
0.66,1.0,8.1532164160401,-3.3836234335839595,-3.68537969924812,-0.03081315789473687,-0.022905513784461238,0.030590726817042512
0.661,1.0,8.153186466165414,-3.383665413533834,-3.685403759398496,-0.0308105263157895,-0.02289774436090234,0.03059924812030066
0.662,1.0,8.153156516290727,-3.383707393483709,-3.6854278195488717,-0.03080789473684213,-0.022889974937343443,0.030607769423558806
0.663,1.0,8.15312656641604,-3.3837493734335835,-3.6854518796992477,-0.030805263157894766,-0.022882205513784545,0.03061629072681695
0.664,1.0,8.153096616541353,-3.383791353383458,-3.6854759398496237,-0.030802631578947397,-0.022874436090225648,0.030624812030075096
0.665,1.0,8.153066666666668,-3.383833333333333,-3.6854999999999998,-0.03080000000000003,-0.02286666666666675,0.03063333333333324
0.666,1.0,8.15303671679198,-3.3838753132832076,-3.685524060150376,-0.03079736842105266,-0.022858897243107853,0.030641854636591387
0.667,1.0,8.153006766917294,-3.383917293233082,-3.6855481203007514,-0.03079473684210529,-0.022851127819548955,0.030650375939849532
0.668,1.0,8.152976817042607,-3.383959273182957,-3.6855721804511274,-0.030792105263157923,-0.02284335839599006,0.030658897243107677
0.669,1.0,8.15294686716792,-3.3840012531328316,-3.6855962406015035,-0.030789473684210554,-0.02283558897243116,0.030667418546365822
0.67,1.0,8.152916917293233,-3.384043233082706,-3.6856203007518795,-0.030786842105263185,-0.022827819548872266,0.030675939849623968
0.671,1.0,8.152886967418546,-3.384085213032581,-3.685644360902255,-0.030784210526315817,-0.02282005012531337,0.030684461152882113
0.672,1.0,8.152857017543859,-3.3841271929824557,-3.685668421052631,-0.030781578947368448,-0.02281228070175447,0.030692982456140258
0.673,1.0,8.152827067669174,-3.38416917293233,-3.685692481203007,-0.03077894736842108,-0.022804511278195574,0.030701503759398403
0.674,1.0,8.152797117794487,-3.384211152882205,-3.6857165413533832,-0.03077631578947371,-0.022796741854636676,0.03071002506265655
0.675,1.0,8.1527671679198,-3.3842531328320797,-3.6857406015037593,-0.030773684210526342,-0.02278897243107778,0.030718546365914694
0.676,1.0,8.152737218045113,-3.3842951127819543,-3.685764661654135,-0.030771052631578973,-0.02278120300751888,0.03072706766917284
0.677,1.0,8.152707268170426,-3.3843370927318293,-3.685788721804511,-0.030768421052631605,-0.022773433583959984,0.030735588972430984
0.678,1.0,8.152677318295739,-3.384379072681704,-3.685812781954887,-0.03076578947368424,-0.022765664160401086,0.03074411027568913
0.679,1.0,8.152647368421052,-3.3844210526315783,-3.685836842105263,-0.03076315789473687,-0.02275789473684219,0.030752631578947275
0.68,1.0,8.152617418546367,-3.3844630325814533,-3.6858609022556386,-0.030760526315789502,-0.02275012531328329,0.03076115288220542
0.681,1.0,8.15258746867168,-3.384505012531328,-3.6858849624060146,-0.030757894736842133,-0.022742355889724397,0.030769674185463565
0.682,1.0,8.152557518796993,-3.3845469924812024,-3.6859090225563906,-0.030755263157894765,-0.022734586466165496,0.03077819548872171
0.683,1.0,8.152527568922306,-3.3845889724310774,-3.6859330827067667,-0.030752631578947396,-0.022726817042606602,0.030786716791979855
0.684,1.0,8.152497619047619,-3.384630952380952,-3.6859571428571427,-0.030750000000000027,-0.022719047619047705,0.030795238095238
0.685,1.0,8.152467669172932,-3.3846729323308264,-3.6859812030075183,-0.03074736842105266,-0.022711278195488807,0.030803759398496146
0.686,1.0,8.152437719298245,-3.3847149122807014,-3.6860052631578943,-0.03074473684210529,-0.02270350877192991,0.03081228070175429
0.687,1.0,8.15240776942356,-3.384756892230576,-3.6860293233082704,-0.03074210526315792,-0.022695739348371012,0.030820802005012436
0.6880000000000001,1.0,8.152377819548873,-3.3847988721804505,-3.6860533834586464,-0.030739473684210553,-0.022687969924812115,0.03082932330827058
0.6890000000000001,1.0,8.152347869674186,-3.3848408521303255,-3.686077443609022,-0.030736842105263184,-0.022680200501253217,0.030837844611528727
0.6900000000000001,1.0,8.152317919799499,-3.3848828320802,-3.686101503759398,-0.030734210526315815,-0.02267243107769432,0.030846365914786872
0.6910000000000001,1.0,8.152287969924812,-3.3849248120300746,-3.686125563909774,-0.03073157894736845,-0.022664661654135422,0.030854887218045017
0.6920000000000001,1.0,8.152258020050125,-3.3849667919799495,-3.68614962406015,-0.03072894736842108,-0.022656892230576525,0.030863408521303166
0.6930000000000001,1.0,8.152228070175438,-3.385008771929824,-3.686173684210526,-0.030726315789473713,-0.022649122807017627,0.03087192982456131
0.6940000000000001,1.0,8.152198120300753,-3.3850507518796986,-3.6861977443609018,-0.030723684210526344,-0.022641353383458733,0.030880451127819456
0.6950000000000001,1.0,8.152168170426066,-3.3850927318295736,-3.686221804511278,-0.030721052631578975,-0.022633583959899832,0.0308889724310776
0.6960000000000001,1.0,8.152138220551379,-3.385134711779448,-3.686245864661654,-0.030718421052631607,-0.022625814536340938,0.030897493734335747
0.6970000000000001,1.0,8.152108270676692,-3.3851766917293227,-3.68626992481203,-0.030715789473684238,-0.02261804511278204,0.030906015037593892
0.6980000000000001,1.0,8.152078320802005,-3.3852186716791977,-3.686293984962406,-0.03071315789473687,-0.022610275689223143,0.030914536340852037
0.6990000000000001,1.0,8.152048370927318,-3.385260651629072,-3.6863180451127815,-0.0307105263157895,-0.022602506265664245,0.030923057644110182
0.7000000000000001,1.0,8.152018421052631,-3.3853026315789467,-3.6863421052631575,-0.030707894736842132,-0.022594736842105348,0.030931578947368327
0.7010000000000001,1.0,8.151988471177944,-3.3853446115288217,-3.6863661654135336,-0.030705263157894763,-0.02258696741854645,0.030940100250626473
0.7020000000000001,1.0,8.151958521303259,-3.3853865914786962,-3.6863902255639096,-0.030702631578947395,-0.022579197994987553,0.030948621553884618
0.7030000000000001,1.0,8.151928571428572,-3.385428571428571,-3.686414285714285,-0.030700000000000026,-0.022571428571428655,0.030957142857142763
0.704,1.0,8.151898621553885,-3.3854705513784458,-3.6864383458646612,-0.03069736842105266,-0.022563659147869758,0.030965664160400908
0.705,1.0,8.151868671679198,-3.3855125313283203,-3.6864624060150373,-0.030694736842105292,-0.022555889724310864,0.030974185463659053
0.706,1.0,8.151838721804511,-3.385554511278195,-3.6864864661654133,-0.030692105263157923,-0.022548120300751966,0.0309827067669172
0.707,1.0,8.151808771929824,-3.38559649122807,-3.6865105263157893,-0.030689473684210555,-0.02254035087719307,0.030991228070175344
0.708,1.0,8.151778822055137,-3.3856384711779444,-3.686534586466165,-0.030686842105263186,-0.02253258145363417,0.03099974937343349
0.709,1.0,8.151748872180452,-3.385680451127819,-3.686558646616541,-0.030684210526315817,-0.022524812030075274,0.031008270676691634
0.71,1.0,8.151718922305765,-3.385722431077694,-3.686582706766917,-0.03068157894736845,-0.022517042606516376,0.03101679197994978
0.711,1.0,8.151688972431078,-3.3857644110275684,-3.686606766917293,-0.03067894736842108,-0.02250927318295748,0.031025313283207925
0.712,1.0,8.151659022556391,-3.385806390977443,-3.6866308270676686,-0.03067631578947371,-0.02250150375939858,0.03103383458646607
0.713,1.0,8.151629072681704,-3.385848370927318,-3.6866548872180447,-0.030673684210526343,-0.022493734335839684,0.031042355889724215
0.714,1.0,8.151599122807017,-3.3858903508771925,-3.6866789473684207,-0.030671052631578974,-0.022485964912280786,0.03105087719298236
0.715,1.0,8.15156917293233,-3.385932330827067,-3.6867030075187968,-0.030668421052631605,-0.02247819548872189,0.031059398496240505
0.716,1.0,8.151539223057645,-3.385974310776942,-3.686727067669173,-0.030665789473684237,-0.022470426065162995,0.03106791979949865
0.717,1.0,8.151509273182958,-3.3860162907268165,-3.6867511278195484,-0.03066315789473687,-0.022462656641604094,0.0310764411027568
0.718,1.0,8.151479323308271,-3.386058270676691,-3.6867751879699244,-0.030660526315789503,-0.0224548872180452,0.031084962406014945
0.719,1.0,8.151449373433584,-3.386100250626566,-3.6867992481203005,-0.030657894736842134,-0.022447117794486302,0.03109348370927309
0.72,1.0,8.151419423558897,-3.3861422305764406,-3.6868233082706765,-0.030655263157894765,-0.022439348370927405,0.031102005012531235
0.721,1.0,8.15138947368421,-3.386184210526315,-3.686847368421052,-0.030652631578947397,-0.022431578947368507,0.03111052631578938
0.722,1.0,8.151359523809523,-3.38622619047619,-3.686871428571428,-0.030650000000000028,-0.02242380952380961,0.031119047619047525
0.723,1.0,8.151329573934838,-3.3862681704260646,-3.686895488721804,-0.03064736842105266,-0.022416040100250712,0.03112756892230567
0.724,1.0,8.151299624060151,-3.386310150375939,-3.68691954887218,-0.03064473684210529,-0.022408270676691815,0.031136090225563816
0.725,1.0,8.151269674185464,-3.386352130325814,-3.6869436090225562,-0.030642105263157922,-0.022400501253132917,0.03114461152882196
0.726,1.0,8.151239724310777,-3.3863941102756887,-3.686967669172932,-0.030639473684210553,-0.02239273182957402,0.031153132832080106
0.727,1.0,8.15120977443609,-3.3864360902255632,-3.686991729323308,-0.030636842105263185,-0.022384962406015122,0.03116165413533825
0.728,1.0,8.151179824561403,-3.3864780701754382,-3.687015789473684,-0.030634210526315816,-0.022377192982456225,0.031170175438596397
0.729,1.0,8.151149874686716,-3.3865200501253128,-3.68703984962406,-0.030631578947368447,-0.02236942355889733,0.031178696741854542
0.73,1.0,8.15111992481203,-3.3865620300751873,-3.6870639097744355,-0.030628947368421082,-0.02236165413533843,0.031187218045112687
0.731,1.0,8.151089974937344,-3.3866040100250623,-3.6870879699248116,-0.030626315789473713,-0.022353884711779536,0.031195739348370832
0.732,1.0,8.151060025062657,-3.386645989974937,-3.6871120300751876,-0.030623684210526345,-0.022346115288220638,0.031204260651628977
0.733,1.0,8.15103007518797,-3.3866879699248114,-3.6871360902255637,-0.030621052631578976,-0.02233834586466174,0.031212781954887123
0.734,1.0,8.151000125313283,-3.3867299498746863,-3.6871601503759397,-0.030618421052631607,-0.022330576441102843,0.031221303258145268
0.735,1.0,8.150970175438596,-3.386771929824561,-3.6871842105263153,-0.03061578947368424,-0.022322807017543946,0.031229824561403413
0.736,1.0,8.15094022556391,-3.3868139097744354,-3.6872082706766913,-0.03061315789473687,-0.022315037593985048,0.03123834586466156
0.737,1.0,8.150910275689222,-3.3868558897243104,-3.6872323308270674,-0.0306105263157895,-0.02230726817042615,0.031246867167919704
0.738,1.0,8.150880325814537,-3.386897869674185,-3.6872563909774434,-0.030607894736842133,-0.022299498746867253,0.03125538847117785
0.739,1.0,8.15085037593985,-3.3869398496240595,-3.687280451127819,-0.030605263157894764,-0.022291729323308355,0.031263909774435994
0.74,1.0,8.150820426065163,-3.3869818295739345,-3.687304511278195,-0.030602631578947395,-0.02228395989974946,0.03127243107769414
0.741,1.0,8.150790476190476,-3.387023809523809,-3.687328571428571,-0.030600000000000026,-0.02227619047619056,0.031280952380952284
0.742,1.0,8.15076052631579,-3.3870657894736835,-3.687352631578947,-0.030597368421052658,-0.022268421052631666,0.03128947368421043
0.743,1.0,8.150730576441102,-3.3871077694235585,-3.687376691729323,-0.030594736842105293,-0.022260651629072765,0.031297994987468575
0.744,1.0,8.150700626566415,-3.387149749373433,-3.6874007518796987,-0.030592105263157924,-0.02225288220551387,0.03130651629072672
0.745,1.0,8.15067067669173,-3.3871917293233076,-3.6874248120300748,-0.030589473684210555,-0.022245112781954974,0.031315037593984865
0.746,1.0,8.150640726817043,-3.3872337092731826,-3.687448872180451,-0.030586842105263187,-0.022237343358396076,0.03132355889724301
0.747,1.0,8.150610776942356,-3.387275689223057,-3.687472932330827,-0.030584210526315818,-0.02222957393483718,0.031332080200501156
0.748,1.0,8.15058082706767,-3.3873176691729316,-3.687496992481203,-0.03058157894736845,-0.02222180451127828,0.0313406015037593
0.749,1.0,8.150550877192982,-3.3873596491228066,-3.6875210526315785,-0.03057894736842108,-0.022214035087719384,0.031349122807017446
0.75,1.0,8.150520927318295,-3.387401629072681,-3.6875451127819545,-0.030576315789473712,-0.022206265664160486,0.03135764411027559
0.751,1.0,8.150490977443608,-3.3874436090225557,-3.6875691729323306,-0.030573684210526343,-0.02219849624060159,0.031366165413533736
0.752,1.0,8.150461027568923,-3.3874855889724307,-3.6875932330827066,-0.030571052631578974,-0.02219072681704269,0.03137468671679188
0.753,1.0,8.150431077694236,-3.387527568922305,-3.687617293233082,-0.030568421052631606,-0.022182957393483797,0.03138320802005003
0.754,1.0,8.15040112781955,-3.3875695488721798,-3.687641353383458,-0.030565789473684237,-0.022175187969924896,0.03139172932330818
0.755,1.0,8.150371177944862,-3.3876115288220547,-3.6876654135338343,-0.03056315789473687,-0.022167418546366002,0.03140025062656632
0.756,1.0,8.150341228070175,-3.3876535087719293,-3.6876894736842103,-0.030560526315789503,-0.022159649122807105,0.03140877192982447
0.757,1.0,8.150311278195488,-3.3876954887218043,-3.6877135338345863,-0.030557894736842135,-0.022151879699248207,0.03141729323308261
0.758,1.0,8.150281328320801,-3.387737468671679,-3.687737593984962,-0.030555263157894766,-0.02214411027568931,0.03142581453634076
0.759,1.0,8.150251378446114,-3.3877794486215533,-3.687761654135338,-0.030552631578947397,-0.022136340852130412,0.0314343358395989
0.76,1.0,8.15022142857143,-3.3878214285714283,-3.687785714285714,-0.03055000000000003,-0.022128571428571515,0.03144285714285705
0.761,1.0,8.150191478696742,-3.387863408521303,-3.68780977443609,-0.03054736842105266,-0.022120802005012617,0.031451378446115195
0.762,1.0,8.150161528822055,-3.3879053884711774,-3.6878338345864656,-0.03054473684210529,-0.02211303258145372,0.03145989974937334
0.763,1.0,8.150131578947368,-3.3879473684210524,-3.6878578947368417,-0.030542105263157922,-0.022105263157894822,0.031468421052631486
0.764,1.0,8.150101629072681,-3.387989348370927,-3.6878819548872177,-0.030539473684210554,-0.022097493734335925,0.03147694235588963
0.765,1.0,8.150071679197994,-3.3880313283208014,-3.6879060150375937,-0.030536842105263185,-0.022089724310777027,0.031485463659147776
0.766,1.0,8.150041729323307,-3.3880733082706764,-3.68793007518797,-0.030534210526315816,-0.022081954887218133,0.03149398496240592
0.767,1.0,8.150011779448622,-3.388115288220551,-3.6879541353383454,-0.030531578947368448,-0.022074185463659232,0.03150250626566407
0.768,1.0,8.149981829573935,-3.3881572681704255,-3.6879781954887214,-0.03052894736842108,-0.022066416040100338,0.03151102756892221
0.769,1.0,8.149951879699248,-3.3881992481203005,-3.6880022556390974,-0.030526315789473714,-0.02205864661654144,0.03151954887218036
0.77,1.0,8.149921929824561,-3.388241228070175,-3.6880263157894735,-0.030523684210526345,-0.022050877192982543,0.0315280701754385
0.771,1.0,8.149891979949874,-3.3882832080200496,-3.688050375939849,-0.030521052631578977,-0.022043107769423646,0.03153659147869665
0.772,1.0,8.149862030075187,-3.3883251879699245,-3.688074436090225,-0.030518421052631608,-0.022035338345864748,0.03154511278195479
0.773,1.0,8.1498320802005,-3.388367167919799,-3.688098496240601,-0.03051578947368424,-0.02202756892230585,0.03155363408521294
0.774,1.0,8.149802130325815,-3.3884091478696736,-3.688122556390977,-0.03051315789473687,-0.022019799498746953,0.03156215538847108
0.775,1.0,8.149772180451128,-3.3884511278195486,-3.6881466165413532,-0.030510526315789502,-0.022012030075188056,0.03157067669172923
0.776,1.0,8.149742230576441,-3.388493107769423,-3.688170676691729,-0.030507894736842133,-0.022004260651629158,0.031579197994987374
0.777,1.0,8.149712280701754,-3.3885350877192977,-3.688194736842105,-0.030505263157894764,-0.02199649122807026,0.03158771929824552
0.778,1.0,8.149682330827067,-3.3885770676691727,-3.688218796992481,-0.030502631578947396,-0.021988721804511363,0.031596240601503664
0.779,1.0,8.14965238095238,-3.388619047619047,-3.688242857142857,-0.030500000000000027,-0.02198095238095247,0.03160476190476181
0.78,1.0,8.149622431077693,-3.3886610275689217,-3.688266917293233,-0.03049736842105266,-0.021973182957393568,0.031613283208019954
0.781,1.0,8.149592481203008,-3.3887030075187967,-3.6882909774436086,-0.03049473684210529,-0.021965413533834674,0.0316218045112781
0.782,1.0,8.149562531328321,-3.3887449874686713,-3.6883150375939846,-0.030492105263157925,-0.021957644110275776,0.031630325814536245
0.783,1.0,8.149532581453634,-3.388786967418546,-3.6883390977443606,-0.030489473684210556,-0.02194987468671688,0.03163884711779439
0.784,1.0,8.149502631578947,-3.3888289473684208,-3.6883631578947367,-0.030486842105263187,-0.02194210526315798,0.031647368421052535
0.785,1.0,8.14947268170426,-3.3888709273182953,-3.6883872180451123,-0.03048421052631582,-0.021934335839599084,0.03165588972431068
0.786,1.0,8.149442731829573,-3.38891290726817,-3.6884112781954883,-0.03048157894736845,-0.021926566416040186,0.031664411027568826
0.787,1.0,8.149412781954886,-3.388954887218045,-3.6884353383458643,-0.03047894736842108,-0.02191879699248129,0.03167293233082697
0.788,1.0,8.1493828320802,-3.3889968671679194,-3.6884593984962404,-0.030476315789473712,-0.02191102756892239,0.031681453634085116
0.789,1.0,8.149352882205514,-3.389038847117794,-3.6884834586466164,-0.030473684210526344,-0.021903258145363494,0.03168997493734326
0.79,1.0,8.149322932330827,-3.389080827067669,-3.688507518796992,-0.030471052631578975,-0.021895488721804596,0.031698496240601406
0.791,1.0,8.14929298245614,-3.3891228070175434,-3.688531578947368,-0.030468421052631606,-0.0218877192982457,0.03170701754385955
0.792,1.0,8.149263032581453,-3.389164786967418,-3.688555639097744,-0.030465789473684238,-0.021879949874686805,0.0317155388471177
0.793,1.0,8.149233082706766,-3.389206766917293,-3.68857969924812,-0.03046315789473687,-0.021872180451127904,0.03172406015037584
0.794,1.0,8.14920313283208,-3.3892487468671675,-3.6886037593984957,-0.0304605263157895,-0.02186441102756901,0.03173258145363399
0.795,1.0,8.149173182957393,-3.389290726817042,-3.6886278195488718,-0.03045789473684213,-0.021856641604010112,0.03174110275689213
0.796,1.0,8.149143233082707,-3.389332706766917,-3.688651879699248,-0.030455263157894763,-0.021848872180451215,0.03174962406015028
0.797,1.0,8.14911328320802,-3.3893746867167915,-3.688675939849624,-0.030452631578947398,-0.021841102756892317,0.03175814536340842
0.798,1.0,8.149083333333333,-3.389416666666666,-3.6887,-0.03045000000000003,-0.02183333333333342,0.03176666666666657
0.799,1.0,8.149053383458646,-3.389458646616541,-3.6887240601503755,-0.03044736842105266,-0.021825563909774522,0.03177518796992471
0.8,1.0,8.14902343358396,-3.3895006265664156,-3.6887481203007515,-0.030444736842105292,-0.021817794486215625,0.03178370927318286
0.801,1.0,8.148993483709273,-3.38954260651629,-3.6887721804511275,-0.030442105263157923,-0.021810025062656727,0.031792230576441004
0.802,1.0,8.148963533834586,-3.389584586466165,-3.6887962406015036,-0.030439473684210554,-0.02180225563909783,0.03180075187969915
0.803,1.0,8.1489335839599,-3.3896265664160397,-3.688820300751879,-0.030436842105263186,-0.021794486215538936,0.0318092731829573
0.804,1.0,8.148903634085213,-3.389668546365914,-3.688844360902255,-0.030434210526315817,-0.021786716791980035,0.03181779448621544
0.805,1.0,8.148873684210526,-3.389710526315789,-3.6888684210526312,-0.03043157894736845,-0.02177894736842114,0.03182631578947359
0.806,1.0,8.14884373433584,-3.3897525062656637,-3.6888924812030073,-0.03042894736842108,-0.021771177944862243,0.03183483709273173
0.807,1.0,8.148813784461153,-3.3897944862155382,-3.6889165413533833,-0.03042631578947371,-0.021763408521303346,0.03184335839598988
0.808,1.0,8.148783834586466,-3.3898364661654132,-3.688940601503759,-0.030423684210526342,-0.021755639097744448,0.03185187969924802
0.809,1.0,8.148753884711779,-3.3898784461152878,-3.688964661654135,-0.030421052631578974,-0.02174786967418555,0.03186040100250617
0.81,1.0,8.148723934837093,-3.3899204260651623,-3.688988721804511,-0.03041842105263161,-0.021740100250626653,0.03186892230576432
0.811,1.0,8.148693984962406,-3.3899624060150373,-3.689012781954887,-0.03041578947368424,-0.021732330827067756,0.03187744360902246
0.812,1.0,8.14866403508772,-3.390004385964912,-3.6890368421052626,-0.03041315789473687,-0.021724561403508858,0.03188596491228061
0.8130000000000001,1.0,8.148634085213033,-3.3900463659147864,-3.6890609022556387,-0.030410526315789502,-0.02171679197994996,0.03189448621553875
0.8140000000000001,1.0,8.148604135338346,-3.3900883458646613,-3.6890849624060147,-0.030407894736842134,-0.021709022556391063,0.0319030075187969
0.8150000000000001,1.0,8.148574185463659,-3.390130325814536,-3.6891090225563907,-0.030405263157894765,-0.021701253132832166,0.031911528822055044
0.8160000000000001,1.0,8.148544235588972,-3.3901723057644104,-3.6891330827067668,-0.030402631578947396,-0.02169348370927327,0.03192005012531319
0.8170000000000001,1.0,8.148514285714285,-3.3902142857142854,-3.6891571428571424,-0.030400000000000028,-0.02168571428571437,0.031928571428571334
0.8180000000000001,1.0,8.1484843358396,-3.39025626566416,-3.6891812030075184,-0.03039736842105266,-0.021677944862155477,0.03193709273182948
0.8190000000000001,1.0,8.148454385964913,-3.3902982456140345,-3.6892052631578944,-0.03039473684210529,-0.02167017543859658,0.031945614035087624
0.8200000000000001,1.0,8.148424436090226,-3.3903402255639095,-3.6892293233082705,-0.03039210526315792,-0.02166240601503768,0.03195413533834577
0.8210000000000001,1.0,8.148394486215539,-3.390382205513784,-3.6892533834586465,-0.030389473684210553,-0.021654636591478784,0.031962656641603915
0.8220000000000001,1.0,8.148364536340852,-3.3904241854636585,-3.689277443609022,-0.030386842105263184,-0.021646867167919887,0.03197117794486206
0.8230000000000001,1.0,8.148334586466165,-3.3904661654135335,-3.689301503759398,-0.03038421052631582,-0.02163909774436099,0.031979699248120205
0.8240000000000001,1.0,8.148304636591478,-3.390508145363408,-3.689325563909774,-0.03038157894736845,-0.02163132832080209,0.03198822055137835
0.8250000000000001,1.0,8.148274686716793,-3.3905501253132826,-3.68934962406015,-0.03037894736842108,-0.021623558897243194,0.031996741854636496
0.8260000000000001,1.0,8.148244736842106,-3.3905921052631576,-3.689373684210526,-0.030376315789473713,-0.021615789473684296,0.03200526315789464
0.8270000000000001,1.0,8.148214786967419,-3.390634085213032,-3.689397744360902,-0.030373684210526344,-0.0216080200501254,0.032013784461152786
0.8280000000000001,1.0,8.148184837092732,-3.3906760651629066,-3.689421804511278,-0.030371052631578976,-0.0216002506265665,0.03202230576441093
0.8290000000000001,1.0,8.148154887218045,-3.3907180451127816,-3.689445864661654,-0.030368421052631607,-0.021592481203007607,0.032030827067669077
0.8300000000000001,1.0,8.148124937343358,-3.390760025062656,-3.68946992481203,-0.03036578947368424,-0.021584711779448706,0.03203934837092722
0.8310000000000001,1.0,8.14809498746867,-3.3908020050125307,-3.6894939849624055,-0.03036315789473687,-0.021576942355889812,0.03204786967418537
0.8320000000000001,1.0,8.148065037593986,-3.3908439849624057,-3.6895180451127816,-0.0303605263157895,-0.021569172932330915,0.03205639097744351
0.833,1.0,8.148035087719299,-3.3908859649122802,-3.6895421052631576,-0.030357894736842132,-0.021561403508772017,0.03206491228070166
0.834,1.0,8.148005137844612,-3.3909279448621548,-3.6895661654135337,-0.030355263157894764,-0.02155363408521312,0.0320734335839598
0.835,1.0,8.147975187969925,-3.3909699248120297,-3.6895902255639093,-0.0303526315789474,-0.021545864661654222,0.03208195488721795
0.836,1.0,8.147945238095238,-3.3910119047619043,-3.6896142857142853,-0.03035000000000003,-0.021538095238095325,0.03209047619047609
0.837,1.0,8.14791528822055,-3.391053884711779,-3.6896383458646613,-0.03034736842105266,-0.021530325814536427,0.03209899749373424
0.838,1.0,8.147885338345864,-3.391095864661654,-3.6896624060150374,-0.030344736842105292,-0.021522556390977533,0.03210751879699238
0.839,1.0,8.147855388471179,-3.3911378446115283,-3.6896864661654134,-0.030342105263157924,-0.021514786967418632,0.03211604010025053
0.84,1.0,8.147825438596492,-3.391179824561403,-3.689710526315789,-0.030339473684210555,-0.02150701754385974,0.032124561403508674
0.841,1.0,8.147795488721805,-3.391221804511278,-3.689734586466165,-0.030336842105263186,-0.02149924812030084,0.03213308270676682
0.842,1.0,8.147765538847118,-3.3912637844611524,-3.689758646616541,-0.030334210526315818,-0.021491478696741943,0.032141604010024964
0.843,1.0,8.14773558897243,-3.391305764411027,-3.689782706766917,-0.03033157894736845,-0.021483709273183046,0.03215012531328311
0.844,1.0,8.147705639097744,-3.391347744360902,-3.6898067669172927,-0.03032894736842108,-0.021475939849624148,0.032158646616541255
0.845,1.0,8.147675689223057,-3.3913897243107765,-3.6898308270676687,-0.03032631578947371,-0.02146817042606525,0.0321671679197994
0.846,1.0,8.14764573934837,-3.391431704260651,-3.6898548872180448,-0.030323684210526343,-0.021460401002506353,0.032175689223057545
0.847,1.0,8.147615789473685,-3.391473684210526,-3.689878947368421,-0.030321052631578974,-0.021452631578947456,0.03218421052631569
0.848,1.0,8.147585839598998,-3.3915156641604005,-3.689903007518797,-0.030318421052631606,-0.021444862155388558,0.032192731829573835
0.849,1.0,8.14755588972431,-3.391557644110275,-3.6899270676691724,-0.03031578947368424,-0.02143709273182966,0.03220125313283198
0.85,1.0,8.147525939849624,-3.39159962406015,-3.6899511278195485,-0.03031315789473687,-0.021429323308270763,0.032209774436090126
0.851,1.0,8.147495989974937,-3.3916416040100246,-3.6899751879699245,-0.030310526315789503,-0.02142155388471187,0.03221829573934827
0.852,1.0,8.14746604010025,-3.391683583959899,-3.6899992481203006,-0.030307894736842134,-0.021413784461152968,0.032226817042606416
0.853,1.0,8.147436090225563,-3.391725563909774,-3.690023308270676,-0.030305263157894766,-0.021406015037594074,0.03223533834586456
0.854,1.0,8.147406140350878,-3.3917675438596486,-3.690047368421052,-0.030302631578947397,-0.021398245614035177,0.03224385964912271
0.855,1.0,8.14737619047619,-3.391809523809523,-3.6900714285714282,-0.03030000000000003,-0.02139047619047628,0.03225238095238085
0.856,1.0,8.147346240601504,-3.391851503759398,-3.6900954887218043,-0.03029736842105266,-0.02138270676691738,0.032260902255639
0.857,1.0,8.147316290726817,-3.3918934837092727,-3.6901195488721803,-0.03029473684210529,-0.021374937343358484,0.03226942355889714
0.858,1.0,8.14728634085213,-3.391935463659147,-3.690143609022556,-0.030292105263157922,-0.021367167919799587,0.03227794486215529
0.859,1.0,8.147256390977443,-3.391977443609022,-3.690167669172932,-0.030289473684210554,-0.02135939849624069,0.03228646616541343
0.86,1.0,8.147226441102756,-3.3920194235588967,-3.690191729323308,-0.030286842105263185,-0.02135162907268179,0.032294987468671585
0.861,1.0,8.14719649122807,-3.3920614035087713,-3.690215789473684,-0.030284210526315816,-0.021343859649122894,0.03230350877192972
0.862,1.0,8.147166541353384,-3.3921033834586463,-3.69023984962406,-0.03028157894736845,-0.021336090225563997,0.032312030075187875
0.863,1.0,8.147136591478697,-3.392145363408521,-3.6902639097744356,-0.030278947368421082,-0.0213283208020051,0.032320551378446014
0.864,1.0,8.14710664160401,-3.3921873433583953,-3.6902879699248117,-0.030276315789473714,-0.021320551378446205,0.032329072681704166
0.865,1.0,8.147076691729323,-3.3922293233082703,-3.6903120300751877,-0.030273684210526345,-0.021312781954887304,0.03233759398496231
0.866,1.0,8.147046741854636,-3.392271303258145,-3.6903360902255637,-0.030271052631578976,-0.02130501253132841,0.032346115288220456
0.867,1.0,8.147016791979949,-3.3923132832080194,-3.6903601503759393,-0.030268421052631608,-0.021297243107769512,0.0323546365914786
0.868,1.0,8.146986842105264,-3.3923552631578944,-3.6903842105263154,-0.03026578947368424,-0.021289473684210615,0.03236315789473675
0.869,1.0,8.146956892230577,-3.392397243107769,-3.6904082706766914,-0.03026315789473687,-0.021281704260651717,0.03237167919799489
0.87,1.0,8.14692694235589,-3.3924392230576434,-3.6904323308270675,-0.0302605263157895,-0.02127393483709282,0.03238020050125304
0.871,1.0,8.146896992481203,-3.3924812030075184,-3.6904563909774435,-0.030257894736842133,-0.021266165413533922,0.03238872180451118
0.872,1.0,8.146867042606516,-3.392523182957393,-3.690480451127819,-0.030255263157894764,-0.021258395989975025,0.03239724310776933
0.873,1.0,8.146837092731829,-3.3925651629072675,-3.690504511278195,-0.030252631578947396,-0.021250626566416127,0.03240576441102747
0.874,1.0,8.146807142857142,-3.3926071428571425,-3.690528571428571,-0.030250000000000027,-0.02124285714285723,0.03241428571428562
0.875,1.0,8.146777192982455,-3.392649122807017,-3.690552631578947,-0.03024736842105266,-0.021235087719298332,0.03242280701754376
0.876,1.0,8.14674724310777,-3.3926911027568916,-3.690576691729323,-0.030244736842105293,-0.021227318295739435,0.03243132832080191
0.877,1.0,8.146717293233083,-3.3927330827067665,-3.690600751879699,-0.030242105263157924,-0.02121954887218054,0.03243984962406005
0.878,1.0,8.146687343358396,-3.392775062656641,-3.690624812030075,-0.030239473684210556,-0.02121177944862164,0.0324483709273182
0.879,1.0,8.146657393483709,-3.3928170426065156,-3.690648872180451,-0.030236842105263187,-0.021204010025062746,0.032456892230576344
0.88,1.0,8.146627443609022,-3.3928590225563906,-3.690672932330827,-0.030234210526315818,-0.02119624060150385,0.03246541353383449
0.881,1.0,8.146597493734335,-3.392901002506265,-3.6906969924812025,-0.03023157894736845,-0.02118847117794495,0.032473934837092634
0.882,1.0,8.146567543859648,-3.3929429824561397,-3.6907210526315786,-0.03022894736842108,-0.021180701754386053,0.03248245614035078
0.883,1.0,8.146537593984963,-3.3929849624060147,-3.6907451127819546,-0.030226315789473712,-0.021172932330827156,0.032490977443608925
0.884,1.0,8.146507644110276,-3.393026942355889,-3.6907691729323306,-0.030223684210526344,-0.02116516290726826,0.03249949874686707
0.885,1.0,8.146477694235589,-3.3930689223057637,-3.6907932330827062,-0.030221052631578975,-0.02115739348370936,0.032508020050125215
0.886,1.0,8.146447744360902,-3.3931109022556387,-3.6908172932330823,-0.030218421052631606,-0.021149624060150463,0.03251654135338336
0.887,1.0,8.146417794486215,-3.3931528822055133,-3.6908413533834583,-0.030215789473684238,-0.021141854636591566,0.032525062656641505
0.888,1.0,8.146387844611528,-3.393194862155388,-3.6908654135338343,-0.030213157894736872,-0.021134085213032672,0.03253358395989965
0.889,1.0,8.146357894736841,-3.3932368421052628,-3.6908894736842104,-0.030210526315789504,-0.02112631578947377,0.032542105263157796
0.89,1.0,8.146327944862156,-3.3932788220551373,-3.690913533834586,-0.030207894736842135,-0.021118546365914877,0.03255062656641594
0.891,1.0,8.146297994987469,-3.393320802005012,-3.690937593984962,-0.030205263157894766,-0.02111077694235598,0.032559147869674086
0.892,1.0,8.146268045112782,-3.393362781954887,-3.690961654135338,-0.030202631578947398,-0.02110300751879708,0.03256766917293223
0.893,1.0,8.146238095238095,-3.3934047619047614,-3.690985714285714,-0.03020000000000003,-0.021095238095238184,0.03257619047619038
0.894,1.0,8.146208145363408,-3.393446741854636,-3.6910097744360897,-0.03019736842105266,-0.021087468671679287,0.03258471177944852
0.895,1.0,8.146178195488721,-3.393488721804511,-3.6910338345864657,-0.03019473684210529,-0.02107969924812039,0.03259323308270667
0.896,1.0,8.146148245614034,-3.3935307017543854,-3.6910578947368418,-0.030192105263157923,-0.02107192982456149,0.03260175438596481
0.897,1.0,8.146118295739349,-3.39357268170426,-3.691081954887218,-0.030189473684210554,-0.021064160401002594,0.03261027568922296
0.898,1.0,8.146088345864662,-3.393614661654135,-3.691106015037594,-0.030186842105263186,-0.021056390977443697,0.0326187969924811
0.899,1.0,8.146058395989975,-3.3936566416040095,-3.6911300751879694,-0.030184210526315817,-0.0210486215538848,0.03262731829573925
0.9,1.0,8.146028446115288,-3.3936986215538845,-3.6911541353383455,-0.030181578947368448,-0.0210408521303259,0.03263583959899739
0.901,1.0,8.145998496240601,-3.393740601503759,-3.6911781954887215,-0.030178947368421083,-0.021033082706767008,0.03264436090225554
0.902,1.0,8.145968546365914,-3.3937825814536335,-3.6912022556390975,-0.03017631578947371,-0.021025313283208107,0.032652882205513684
0.903,1.0,8.145938596491227,-3.3938245614035085,-3.6912263157894736,-0.030173684210526346,-0.021017543859649213,0.03266140350877183
0.904,1.0,8.14590864661654,-3.393866541353383,-3.691250375939849,-0.030171052631578977,-0.021009774436090315,0.032669924812029974
0.905,1.0,8.145878696741855,-3.3939085213032576,-3.691274436090225,-0.030168421052631608,-0.021002005012531418,0.03267844611528812
0.906,1.0,8.145848746867168,-3.3939505012531326,-3.6912984962406012,-0.03016578947368424,-0.02099423558897252,0.032686967418546264
0.907,1.0,8.145818796992481,-3.393992481203007,-3.6913225563909773,-0.03016315789473687,-0.020986466165413623,0.03269548872180441
