Time,Sensor ID,Accel X (m/s^2),Accel Y (m/s^2),Accel Z (m/s^2),Gyro X (rad/s),Gyro Y (rad/s),Gyro Z (rad/s)
0.0,1.0,9.1219,-3.3902,3.0789,-0.0826,0.0003,0.0032
0.001,1.0,9.121675,-3.39005,3.0786015625,-0.08259843750000001,0.00029531249999999946,0.0032062500000000008
0.002,1.0,9.12145,-3.3899,3.0783031249999997,-0.082596875,0.00029062499999999895,0.0032125000000000014
0.003,1.0,9.121225,-3.38975,3.0780046875,-0.0825953125,0.00028593749999999843,0.003218750000000002
0.004,1.0,9.121,-3.3896,3.07770625,-0.08259375000000001,0.0002812499999999979,0.003225000000000003
0.005,1.0,9.120775,-3.38945,3.0774078124999997,-0.08259218750000001,0.0002765624999999974,0.0032312500000000037
0.006,1.0,9.12055,-3.3893,3.0771093749999996,-0.082590625,0.0002718749999999969,0.0032375000000000043
0.007,1.0,9.120325,-3.38915,3.0768109375,-0.0825890625,0.0002671874999999964,0.003243750000000005
0.008,1.0,9.1201,-3.389,3.0765124999999998,-0.08258750000000001,0.00026249999999999586,0.0032500000000000055
0.009000000000000001,1.0,9.119875,-3.3888499999999997,3.0762140624999996,-0.0825859375,0.00025781249999999535,0.0032562500000000065
0.01,1.0,9.11965,-3.3887,3.0759156249999995,-0.082584375,0.00025312499999999484,0.003262500000000007
0.011,1.0,9.119425,-3.38855,3.0756171875,-0.0825828125,0.0002484374999999943,0.0032687500000000078
0.012,1.0,9.1192,-3.3884,3.0753187499999997,-0.08258125000000001,0.00024374999999999378,0.0032750000000000084
0.013000000000000001,1.0,9.118974999999999,-3.3882499999999998,3.0750203124999995,-0.0825796875,0.00023906249999999327,0.003281250000000009
0.014,1.0,9.11875,-3.3880999999999997,3.0747218749999994,-0.082578125,0.00023437499999999275,0.0032875000000000096
0.015,1.0,9.118525,-3.3879499999999996,3.0744234374999997,-0.0825765625,0.00022968749999999224,0.00329375000000001
0.016,1.0,9.1183,-3.3878,3.0741249999999996,-0.08257500000000001,0.0002249999999999917,0.0033000000000000113
0.017,1.0,9.118075,-3.38765,3.0738265624999994,-0.0825734375,0.00022031249999999119,0.003306250000000012
0.018000000000000002,1.0,9.117849999999999,-3.3874999999999997,3.0735281249999993,-0.082571875,0.00021562499999999067,0.0033125000000000125
0.019,1.0,9.117625,-3.3873499999999996,3.0732296874999996,-0.0825703125,0.00021093749999999016,0.003318750000000013
0.02,1.0,9.1174,-3.3871999999999995,3.0729312499999994,-0.08256875,0.00020624999999998964,0.0033250000000000137
0.021,1.0,9.117175,-3.3870499999999995,3.0726328124999993,-0.0825671875,0.00020156249999998913,0.0033312500000000148
0.022,1.0,9.11695,-3.3869,3.072334374999999,-0.082565625,0.00019687499999998862,0.0033375000000000154
0.023,1.0,9.116724999999999,-3.3867499999999997,3.072035937499999,-0.08256406250000001,0.0001921874999999881,0.003343750000000016
0.024,1.0,9.1165,-3.3865999999999996,3.0717374999999993,-0.0825625,0.0001874999999999876,0.0033500000000000166
0.025,1.0,9.116275,-3.3864499999999995,3.071439062499999,-0.0825609375,0.00018281249999998708,0.003356250000000017
0.026000000000000002,1.0,9.11605,-3.3862999999999994,3.071140624999999,-0.082559375,0.00017812499999998656,0.003362500000000018
0.027,1.0,9.115825,-3.3861499999999993,3.070842187499999,-0.0825578125,0.00017343749999998605,0.0033687500000000184
0.028,1.0,9.115599999999999,-3.3859999999999997,3.0705437499999992,-0.08255625,0.00016874999999998553,0.0033750000000000195
0.029,1.0,9.115374999999998,-3.3858499999999996,3.070245312499999,-0.0825546875,0.000164062499999985,0.00338125000000002
0.03,1.0,9.11515,-3.3856999999999995,3.069946874999999,-0.082553125,0.0001593749999999845,0.0033875000000000207
0.031,1.0,9.114925,-3.3855499999999994,3.069648437499999,-0.0825515625,0.000154687499999984,0.0033937500000000213
0.032,1.0,9.1147,-3.3853999999999993,3.069349999999999,-0.08255,0.00014999999999998345,0.003400000000000022
0.033,1.0,9.114474999999999,-3.385249999999999,3.069051562499999,-0.0825484375,0.00014531249999998294,0.003406250000000023
0.034,1.0,9.114249999999998,-3.3850999999999996,3.068753124999999,-0.082546875,0.00014062499999998243,0.0034125000000000236
0.035,1.0,9.114025,-3.3849499999999995,3.0684546874999987,-0.0825453125,0.0001359374999999819,0.003418750000000024
0.036000000000000004,1.0,9.1138,-3.3847999999999994,3.068156249999999,-0.08254375,0.00013124999999998137,0.003425000000000025
0.037,1.0,9.113574999999999,-3.3846499999999993,3.067857812499999,-0.0825421875,0.00012656249999998088,0.0034312500000000254
0.038,1.0,9.113349999999999,-3.384499999999999,3.0675593749999988,-0.08254062499999999,0.00012187499999998037,0.003437500000000026
0.039,1.0,9.113124999999998,-3.384349999999999,3.0672609374999986,-0.0825390625,0.00011718749999997986,0.0034437500000000267
0.04,1.0,9.1129,-3.3841999999999994,3.066962499999999,-0.0825375,0.00011249999999997934,0.0034500000000000277
0.041,1.0,9.112675,-3.3840499999999993,3.066664062499999,-0.0825359375,0.0001078124999999788,0.0034562500000000283
0.042,1.0,9.112449999999999,-3.3838999999999992,3.0663656249999987,-0.082534375,0.00010312499999997829,0.003462500000000029
0.043000000000000003,1.0,9.112224999999999,-3.383749999999999,3.0660671874999985,-0.0825328125,9.843749999997777e-05,0.0034687500000000295
0.044,1.0,9.111999999999998,-3.383599999999999,3.0657687499999984,-0.08253125,9.374999999997729e-05,0.00347500000000003
0.045,1.0,9.111775,-3.383449999999999,3.0654703124999987,-0.08252968749999999,8.906249999997677e-05,0.003481250000000031
0.046,1.0,9.11155,-3.3832999999999993,3.0651718749999985,-0.082528125,8.437499999997623e-05,0.003487500000000032
0.047,1.0,9.111324999999999,-3.383149999999999,3.0648734374999984,-0.0825265625,7.968749999997572e-05,0.0034937500000000324
0.048,1.0,9.111099999999999,-3.382999999999999,3.0645749999999983,-0.082525,7.49999999999752e-05,0.003500000000000033
0.049,1.0,9.110874999999998,-3.382849999999999,3.0642765624999986,-0.08252343749999999,7.031249999997469e-05,0.0035062500000000336
0.05,1.0,9.110649999999998,-3.382699999999999,3.0639781249999984,-0.082521875,6.562499999997418e-05,0.0035125000000000343
0.051000000000000004,1.0,9.110425,-3.382549999999999,3.0636796874999983,-0.0825203125,6.093749999997364e-05,0.003518750000000035
0.052000000000000005,1.0,9.110199999999999,-3.382399999999999,3.063381249999998,-0.08251875,5.6249999999973124e-05,0.003525000000000036
0.053,1.0,9.109974999999999,-3.382249999999999,3.0630828124999985,-0.08251718749999999,5.156249999997264e-05,0.0035312500000000365
0.054,1.0,9.109749999999998,-3.382099999999999,3.0627843749999983,-0.082515625,4.6874999999972123e-05,0.003537500000000037
0.055,1.0,9.109524999999998,-3.381949999999999,3.062485937499998,-0.0825140625,4.218749999997161e-05,0.0035437500000000378
0.056,1.0,9.1093,-3.381799999999999,3.062187499999998,-0.08251249999999999,3.7499999999971096e-05,0.0035500000000000384
0.057,1.0,9.109074999999999,-3.3816499999999987,3.0618890624999984,-0.08251093749999999,3.281249999997058e-05,0.0035562500000000394
0.058,1.0,9.108849999999999,-3.381499999999999,3.0615906249999982,-0.082509375,2.8124999999970014e-05,0.00356250000000004
0.059000000000000004,1.0,9.108624999999998,-3.381349999999999,3.061292187499998,-0.0825078125,2.34374999999695e-05,0.0035687500000000406
0.06,1.0,9.108399999999998,-3.381199999999999,3.060993749999998,-0.08250624999999999,1.874999999996904e-05,0.0035750000000000413
0.061,1.0,9.108175,-3.381049999999999,3.0606953124999983,-0.08250468749999999,1.4062499999968527e-05,0.003581250000000042
0.062,1.0,9.107949999999999,-3.3808999999999987,3.060396874999998,-0.082503125,9.374999999968014e-06,0.0035875000000000425
0.063,1.0,9.107724999999999,-3.3807499999999986,3.060098437499998,-0.08250156249999999,4.6874999999674456e-06,0.003593750000000043
0.064,1.0,9.107500000000002,-3.3806000000000007,3.0598000000000005,-0.08250000000000002,-8.676819946301528e-17,0.0035999999999998264
0.065,1.0,9.107647692307694,-3.3807476923076933,3.0598738461538466,-0.08250153846153847,-1.2307692307779519e-05,0.003575384615384441
0.066,1.0,9.107795384615386,-3.3808953846153855,3.0599476923076927,-0.08250307692307694,-2.461538461547227e-05,0.0035507692307690554
0.067,1.0,9.107943076923078,-3.3810430769230777,3.0600215384615392,-0.0825046153846154,-3.692307692316502e-05,0.00352615384615367
0.068,1.0,9.10809076923077,-3.3811907692307703,3.0600953846153853,-0.08250615384615387,-4.923076923085777e-05,0.0035015384615382844
0.069,1.0,9.108238461538463,-3.3813384615384625,3.0601692307692314,-0.08250769230769232,-6.153846153855052e-05,0.003476923076922899
0.07,1.0,9.108386153846155,-3.3814861538461547,3.0602430769230775,-0.08250923076923078,-7.384615384624328e-05,0.0034523076923075133
0.07100000000000001,1.0,9.108533846153847,-3.381633846153847,3.0603169230769236,-0.08251076923076925,-8.615384615393602e-05,0.003427692307692128
0.07200000000000001,1.0,9.10868153846154,-3.3817815384615395,3.0603907692307697,-0.0825123076923077,-9.846153846162878e-05,0.0034030769230767423
0.073,1.0,9.108829230769231,-3.3819292307692317,3.060464615384616,-0.08251384615384617,-0.00011076923076932135,0.0033784615384613572
0.074,1.0,9.108976923076924,-3.382076923076924,3.0605384615384623,-0.08251538461538463,-0.00012307692307701412,0.0033538461538459717
0.075,1.0,9.109124615384616,-3.3822246153846165,3.0606123076923084,-0.0825169230769231,-0.00013538461538470685,0.003329230769230586
0.076,1.0,9.10927230769231,-3.3823723076923087,3.0606861538461545,-0.08251846153846155,-0.0001476923076923996,0.0033046153846152007
0.077,1.0,9.109420000000002,-3.382520000000001,3.0607600000000006,-0.08252000000000001,-0.00016000000000009236,0.003279999999999815
0.078,1.0,9.109567692307694,-3.3826676923076935,3.0608338461538467,-0.08252153846153848,-0.00017230769230778512,0.0032553846153844297
0.079,1.0,9.109715384615386,-3.3828153846153857,3.0609076923076928,-0.08252307692307694,-0.00018461538461547785,0.003230769230769044
0.08,1.0,9.109863076923078,-3.382963076923078,3.060981538461539,-0.0825246153846154,-0.0001969230769231706,0.0032061538461536586
0.081,1.0,9.11001076923077,-3.3831107692307705,3.0610553846153854,-0.08252615384615386,-0.00020923076923086336,0.003181538461538273
0.082,1.0,9.110158461538463,-3.3832584615384627,3.0611292307692315,-0.08252769230769233,-0.00022153846153855612,0.0031569230769228876
0.083,1.0,9.110306153846155,-3.383406153846155,3.0612030769230776,-0.08252923076923079,-0.00023384615384624885,0.003132307692307502
0.084,1.0,9.110453846153847,-3.383553846153847,3.0612769230769237,-0.08253076923076924,-0.0002461538461539416,0.003107692307692117
0.085,1.0,9.11060153846154,-3.3837015384615396,3.0613507692307698,-0.08253230769230771,-0.00025846153846163436,0.003083076923076731
0.08600000000000001,1.0,9.110749230769231,-3.383849230769232,3.061424615384616,-0.08253384615384617,-0.0002707692307693271,0.003058461538461346
0.08700000000000001,1.0,9.110896923076924,-3.383996923076924,3.061498461538462,-0.08253538461538464,-0.0002830769230770199,0.00303384615384596
0.088,1.0,9.111044615384618,-3.3841446153846166,3.0615723076923085,-0.08253692307692309,-0.0002953846153847124,0.003009230769230575
0.089,1.0,9.11119230769231,-3.384292307692309,3.0616461538461546,-0.08253846153846156,-0.00030769230769240517,0.0029846153846151894
0.09,1.0,9.111340000000002,-3.384440000000001,3.0617200000000007,-0.08254000000000002,-0.00032000000000009793,0.002959999999999804
0.091,1.0,9.111487692307694,-3.3845876923076936,3.0617938461538468,-0.08254153846153849,-0.0003323076923077907,0.002935384615384419
0.092,1.0,9.111635384615386,-3.384735384615386,3.061867692307693,-0.08254307692307694,-0.00034461538461548344,0.002910769230769033
0.093,1.0,9.111783076923079,-3.384883076923078,3.061941538461539,-0.0825446153846154,-0.0003569230769231762,0.002886153846153648
0.094,1.0,9.11193076923077,-3.38503076923077,3.0620153846153855,-0.08254615384615387,-0.00036923076923086896,0.002861538461538262
0.095,1.0,9.112078461538463,-3.385178461538463,3.0620892307692316,-0.08254769230769232,-0.0003815384615385617,0.002836923076922877
0.096,1.0,9.112226153846155,-3.385326153846155,3.0621630769230777,-0.08254923076923079,-0.00039384615384625447,0.0028123076923074913
0.097,1.0,9.112373846153847,-3.385473846153847,3.0622369230769237,-0.08255076923076925,-0.0004061538461539472,0.0027876923076921058
0.098,1.0,9.11252153846154,-3.38562153846154,3.06231076923077,-0.08255230769230772,-0.00041846153846163993,0.0027630769230767203
0.099,1.0,9.112669230769232,-3.385769230769232,3.062384615384616,-0.08255384615384617,-0.0004307692307693327,0.0027384615384613347
0.1,1.0,9.112816923076924,-3.385916923076924,3.062458461538462,-0.08255538461538463,-0.00044307692307702545,0.0027138461538459492
0.101,1.0,9.112964615384618,-3.386064615384617,3.0625323076923086,-0.0825569230769231,-0.0004553846153847182,0.0026892307692305637
0.10200000000000001,1.0,9.11311230769231,-3.386212307692309,3.0626061538461546,-0.08255846153846155,-0.00046769230769241096,0.002664615384615178
0.10300000000000001,1.0,9.113260000000002,-3.386360000000001,3.0626800000000007,-0.08256000000000002,-0.0004800000000001037,0.0026399999999997927
0.10400000000000001,1.0,9.113407692307694,-3.3865076923076938,3.062753846153847,-0.08256153846153848,-0.0004923076923077965,0.002615384615384407
0.105,1.0,9.113555384615387,-3.386655384615386,3.062827692307693,-0.08256307692307695,-0.000504615384615489,0.002590769230769022
0.106,1.0,9.113703076923079,-3.386803076923078,3.062901538461539,-0.0825646153846154,-0.0005169230769231818,0.0025661538461536366
0.107,1.0,9.11385076923077,-3.3869507692307703,3.062975384615385,-0.08256615384615386,-0.0005292307692308745,0.002541538461538251
0.108,1.0,9.113998461538463,-3.387098461538463,3.0630492307692316,-0.08256769230769233,-0.0005415384615385673,0.0025169230769228656
0.109,1.0,9.114146153846155,-3.387246153846155,3.0631230769230777,-0.08256923076923078,-0.00055384615384626,0.00249230769230748
0.11,1.0,9.114293846153847,-3.3873938461538473,3.063196923076924,-0.08257076923076925,-0.0005661538461539528,0.0024676923076920945
0.111,1.0,9.11444153846154,-3.38754153846154,3.06327076923077,-0.08257230769230771,-0.0005784615384616456,0.002443076923076709
0.112,1.0,9.114589230769232,-3.387689230769232,3.063344615384616,-0.08257384615384618,-0.0005907692307693383,0.0024184615384613235
0.113,1.0,9.114736923076924,-3.3878369230769243,3.063418461538462,-0.08257538461538463,-0.0006030769230770311,0.002393846153845938
0.114,1.0,9.114884615384618,-3.387984615384617,3.063492307692308,-0.0825769230769231,-0.0006153846153847238,0.0023692307692305525
0.115,1.0,9.11503230769231,-3.388132307692309,3.0635661538461547,-0.08257846153846156,-0.0006276923076924166,0.002344615384615167
0.116,1.0,9.115180000000002,-3.3882800000000013,3.063640000000001,-0.08258000000000001,-0.0006400000000001092,0.0023199999999997814
0.117,1.0,9.115327692307694,-3.3884276923076935,3.063713846153847,-0.08258153846153848,-0.000652307692307802,0.002295384615384396
0.11800000000000001,1.0,9.115475384615387,-3.388575384615386,3.063787692307693,-0.08258307692307694,-0.0006646153846154947,0.0022707692307690104
0.11900000000000001,1.0,9.115623076923079,-3.3887230769230783,3.063861538461539,-0.08258461538461541,-0.0006769230769231875,0.0022461538461536253
0.12,1.0,9.115770769230771,-3.3888707692307705,3.063935384615385,-0.08258615384615386,-0.0006892307692308802,0.00222153846153824
0.121,1.0,9.115918461538463,-3.389018461538463,3.0640092307692313,-0.08258769230769233,-0.0007015384615385729,0.0021969230769228543
0.122,1.0,9.116066153846155,-3.3891661538461553,3.064083076923078,-0.08258923076923079,-0.0007138461538462657,0.002172307692307469
0.123,1.0,9.116213846153848,-3.3893138461538475,3.064156923076924,-0.08259076923076925,-0.0007261538461539584,0.0021476923076920833
0.124,1.0,9.11636153846154,-3.38946153846154,3.06423076923077,-0.08259230769230771,-0.0007384615384616511,0.002123076923076698
0.125,1.0,9.116509230769232,-3.3896092307692323,3.064304615384616,-0.08259384615384617,-0.0007507692307693438,0.0020984615384613122
0.126,1.0,9.116656923076926,-3.3897569230769244,3.064378461538462,-0.08259538461538464,-0.0007630769230770366,0.002073846153845927
0.127,1.0,9.116804615384618,-3.3899046153846166,3.0644523076923083,-0.0825969230769231,-0.0007753846153847293,0.0020492307692305412
0.128,1.0,9.11695230769231,-3.3900523076923093,3.0645261538461543,-0.08259846153846157,-0.0007876923076924221,0.002024615384615156
0.129,1.0,9.1171,-3.390199999999998,3.064599999999999,-0.08259999999999997,-0.0007999999999997848,0.002000000000000287
0.13,1.0,9.1171,-3.3899784615384596,3.064526153846153,-0.08259538461538458,-0.0007769230769228609,0.002030769230769519
0.131,1.0,9.1171,-3.389756923076921,3.064452307692307,-0.08259076923076919,-0.000753846153845937,0.0020615384615387507
0.132,1.0,9.1171,-3.3895353846153826,3.064378461538461,-0.08258615384615381,-0.0007307692307690131,0.0020923076923079825
0.133,1.0,9.1171,-3.3893138461538443,3.0643046153846147,-0.08258153846153843,-0.0007076923076920893,0.0021230769230772143
0.134,1.0,9.1171,-3.3890923076923056,3.0642307692307686,-0.08257692307692303,-0.0006846153846151653,0.0021538461538464465
0.135,1.0,9.1171,-3.3888707692307674,3.0641569230769226,-0.08257230769230765,-0.0006615384615382414,0.0021846153846156783
0.136,1.0,9.1171,-3.3886492307692286,3.064083076923076,-0.08256769230769227,-0.0006384615384613175,0.00221538461538491
0.137,1.0,9.1171,-3.3884276923076904,3.06400923076923,-0.08256307692307688,-0.0006153846153843936,0.002246153846154142
0.138,1.0,9.1171,-3.3882061538461516,3.063935384615384,-0.0825584615384615,-0.0005923076923074696,0.002276923076923374
0.139,1.0,9.1171,-3.3879846153846134,3.0638615384615377,-0.08255384615384612,-0.0005692307692305458,0.002307692307692606
0.14,1.0,9.1171,-3.3877630769230747,3.0637876923076917,-0.08254923076923074,-0.000546153846153622,0.0023384615384618376
0.14100000000000001,1.0,9.1171,-3.3875415384615364,3.0637138461538456,-0.08254461538461534,-0.000523076923076698,0.0023692307692310694
0.14200000000000002,1.0,9.1171,-3.387319999999998,3.0636399999999995,-0.08253999999999996,-0.0004999999999997741,0.002400000000000301
0.14300000000000002,1.0,9.1171,-3.3870984615384594,3.063566153846153,-0.08253538461538458,-0.00047692307692285017,0.002430769230769533
0.14400000000000002,1.0,9.1171,-3.386876923076921,3.063492307692307,-0.08253076923076919,-0.0004538461538459263,0.002461538461538765
0.145,1.0,9.1171,-3.3866553846153824,3.0634184615384608,-0.0825261538461538,-0.000430769230769003,0.002492307692307996
0.146,1.0,9.1171,-3.386433846153844,3.0633446153846147,-0.08252153846153842,-0.0004076923076920791,0.002523076923077228
0.147,1.0,9.1171,-3.3862123076923054,3.0632707692307686,-0.08251692307692303,-0.0003846153846151552,0.00255384615384646
0.148,1.0,9.1171,-3.385990769230767,3.0631969230769225,-0.08251230769230765,-0.0003615384615382313,0.002584615384615692
0.149,1.0,9.1171,-3.3857692307692284,3.0631230769230764,-0.08250769230769227,-0.0003384615384613074,0.0026153846153849237
0.15,1.0,9.1171,-3.38554769230769,3.06304923076923,-0.08250307692307689,-0.00031538461538438347,0.0026461538461541555
0.151,1.0,9.1171,-3.3853261538461514,3.0629753846153838,-0.08249846153846149,-0.00029230769230745963,0.0026769230769233873
0.152,1.0,9.1171,-3.385104615384613,3.0629015384615377,-0.08249384615384611,-0.0002692307692305357,0.002707692307692619
0.153,1.0,9.1171,-3.384883076923075,3.0628276923076916,-0.08248923076923073,-0.00024615384615361174,0.0027384615384618513
0.154,1.0,9.1171,-3.384661538461536,3.0627538461538455,-0.08248461538461534,-0.0002230769230766879,0.002769230769231083
0.155,1.0,9.1171,-3.384439999999998,3.0626799999999994,-0.08247999999999996,-0.00019999999999976395,0.002800000000000315
0.156,1.0,9.1171,-3.384218461538459,3.0626061538461533,-0.08247538461538458,-0.00017692307692284011,0.0028307692307695466
0.157,1.0,9.1171,-3.383996923076921,3.0625323076923068,-0.08247076923076918,-0.00015384615384591617,0.002861538461538779
0.158,1.0,9.1171,-3.383775384615382,3.0624584615384607,-0.0824661538461538,-0.00013076923076899222,0.0028923076923080106
0.159,1.0,9.1171,-3.383553846153844,3.0623846153846146,-0.08246153846153842,-0.00010769230769206838,0.0029230769230772424
0.16,1.0,9.1171,-3.383332307692305,3.0623107692307685,-0.08245692307692302,-8.461538461514444e-05,0.002953846153846474
0.161,1.0,9.1171,-3.383110769230767,3.0622369230769224,-0.08245230769230764,-6.15384615382206e-05,0.002984615384615706
0.162,1.0,9.1171,-3.3828892307692287,3.0621630769230763,-0.08244769230769226,-3.846153846129665e-05,0.0030153846153849377
0.163,1.0,9.1171,-3.38266769230769,3.0620892307692302,-0.08244307692307688,-1.5384615384372705e-05,0.0030461538461541695
0.164,1.0,9.1171,-3.3824461538461517,3.0620153846153837,-0.08243846153846149,7.692307692551133e-06,0.0030769230769234017
0.165,1.0,9.1171,-3.382224615384613,3.0619415384615376,-0.08243384615384611,3.076923076947508e-05,0.0031076923076926335
0.166,1.0,9.1171,-3.3820030769230747,3.0618676923076915,-0.08242923076923073,5.384615384639892e-05,0.0031384615384618657
0.167,1.0,9.1171,-3.381781538461536,3.0617938461538454,-0.08242461538461533,7.692307692332286e-05,0.0031692307692310975
0.168,1.0,9.1171,-3.3815599999999977,3.0617199999999993,-0.08241999999999995,0.00010000000000024681,0.0032000000000003293
0.169,1.0,9.1171,-3.381338461538459,3.0616461538461532,-0.08241538461538457,0.00012307692307717065,0.003230769230769561
0.17,1.0,9.1171,-3.3811169230769207,3.061572307692307,-0.08241076923076918,0.0001461538461540946,0.003261538461538793
0.171,1.0,9.1171,-3.3808953846153824,3.0614984615384606,-0.0824061538461538,0.00016923076923101843,0.0032923076923080247
0.17200000000000001,1.0,9.1171,-3.3806738461538437,3.0614246153846145,-0.08240153846153841,0.0001923076923079425,0.0033230769230772565
0.17300000000000001,1.0,9.1171,-3.3804523076923054,3.0613507692307684,-0.08239692307692303,0.00021538461538486633,0.0033538461538464887
0.17400000000000002,1.0,9.1171,-3.3802307692307667,3.0612769230769223,-0.08239230769230764,0.00023846153846179016,0.0033846153846157205
0.17500000000000002,1.0,9.1171,-3.3800092307692284,3.0612030769230762,-0.08238769230769226,0.000261538461538714,0.0034153846153849522
0.176,1.0,9.1171,-3.3797876923076897,3.06112923076923,-0.08238307692307688,0.0002846153846156374,0.0034461538461541836
0.177,1.0,9.1171,-3.3795661538461514,3.061055384615384,-0.08237846153846148,0.00030769230769256124,0.0034769230769234154
0.178,1.0,9.1171,-3.3793446153846127,3.0609815384615375,-0.0823738461538461,0.0003307692307694851,0.003507692307692647
0.179,1.0,9.1171,-3.3791230769230745,3.0609076923076914,-0.08236923076923072,0.00035384615384640914,0.003538461538461879
0.18,1.0,9.1171,-3.3789015384615357,3.0608338461538454,-0.08236461538461533,0.000376923076923333,0.0035692307692311107
0.181,1.0,9.1171,-3.3786799999999975,3.0607599999999993,-0.08235999999999995,0.0004000000000002568,0.0036000000000003425
0.182,1.0,9.1171,-3.378458461538459,3.060686153846153,-0.08235538461538457,0.00042307692307718087,0.0036307692307695743
0.183,1.0,9.1171,-3.3782369230769205,3.060612307692307,-0.08235076923076917,0.0004461538461541047,0.0036615384615388065
0.184,1.0,9.1171,-3.378015384615382,3.060538461538461,-0.08234615384615379,0.00046923076923102854,0.0036923076923080383
0.185,1.0,9.1171,-3.3777938461538435,3.0604646153846145,-0.08234153846153841,0.0004923076923079526,0.0037230769230772705
0.186,1.0,9.1171,-3.377572307692305,3.0603907692307684,-0.08233692307692303,0.0005153846153848764,0.0037538461538465023
0.187,1.0,9.1171,-3.3773507692307665,3.0603169230769223,-0.08233230769230764,0.0005384615384618003,0.003784615384615734
0.188,1.0,9.1171,-3.377129230769228,3.060243076923076,-0.08232769230769225,0.0005615384615387241,0.003815384615384966
0.189,1.0,9.1171,-3.3769076923076895,3.06016923076923,-0.08232307692307687,0.0005846153846156482,0.0038461538461541976
0.19,1.0,9.1171,-3.3766861538461512,3.060095384615384,-0.08231846153846148,0.000607692307692572,0.0038769230769234294
0.191,1.0,9.1171,-3.376464615384613,3.060021538461538,-0.0823138461538461,0.0006307692307694958,0.003907692307692661
0.192,1.0,9.1171,-3.3762430769230742,3.0599476923076914,-0.08230923076923072,0.0006538461538464199,0.003938461538461894
0.193,1.0,9.1171,-3.376021538461536,3.0598738461538453,-0.08230461538461532,0.0006769230769233437,0.003969230769231126
0.194,1.0,9.117099999999999,-3.3758000000000017,3.0597999999999974,-0.0823,0.0007000000000000181,0.004000000000000417
0.195,1.0,9.116876562499998,-3.375950000000002,3.0595749999999975,-0.0823,0.0007015625000000183,0.004035937500000421
0.196,1.0,9.116653124999997,-3.376100000000002,3.0593499999999976,-0.0823,0.0007031250000000185,0.004071875000000425
0.197,1.0,9.116429687499998,-3.3762500000000015,3.059124999999997,-0.0823,0.0007046875000000187,0.004107812500000429
0.198,1.0,9.116206249999998,-3.3764000000000016,3.0588999999999973,-0.0823,0.0007062500000000188,0.004143750000000433
0.199,1.0,9.115982812499999,-3.3765500000000017,3.0586749999999974,-0.0823,0.000707812500000019,0.004179687500000437
0.2,1.0,9.115759374999998,-3.376700000000002,3.0584499999999974,-0.0823,0.0007093750000000191,0.004215625000000441
0.201,1.0,9.115535937499997,-3.376850000000002,3.058224999999997,-0.0823,0.0007109375000000194,0.004251562500000445
0.202,1.0,9.115312499999998,-3.377000000000002,3.057999999999997,-0.0823,0.0007125000000000195,0.004287500000000449
0.203,1.0,9.115089062499997,-3.3771500000000017,3.0577749999999972,-0.0823,0.0007140625000000197,0.004323437500000453
0.20400000000000001,1.0,9.114865624999998,-3.3773000000000017,3.0575499999999973,-0.0823,0.0007156250000000198,0.004359375000000457
0.20500000000000002,1.0,9.114642187499998,-3.377450000000002,3.057324999999997,-0.0823,0.00071718750000002,0.004395312500000461
0.20600000000000002,1.0,9.114418749999997,-3.377600000000002,3.057099999999997,-0.0823,0.0007187500000000202,0.004431250000000465
0.20700000000000002,1.0,9.114195312499998,-3.377750000000002,3.056874999999997,-0.0823,0.0007203125000000204,0.004467187500000469
0.20800000000000002,1.0,9.113971874999997,-3.377900000000002,3.056649999999997,-0.0823,0.0007218750000000206,0.004503125000000473
0.209,1.0,9.113748437499998,-3.3780500000000018,3.056424999999997,-0.0823,0.0007234375000000207,0.004539062500000476
0.21,1.0,9.113524999999997,-3.378200000000002,3.056199999999997,-0.0823,0.0007250000000000209,0.00457500000000048
0.211,1.0,9.113301562499997,-3.378350000000002,3.055974999999997,-0.0823,0.000726562500000021,0.004610937500000484
0.212,1.0,9.113078124999998,-3.378500000000002,3.055749999999997,-0.0823,0.0007281250000000212,0.004646875000000487
0.213,1.0,9.112854687499997,-3.378650000000002,3.055524999999997,-0.0823,0.0007296875000000213,0.004682812500000492
0.214,1.0,9.112631249999998,-3.3788000000000022,3.055299999999997,-0.0823,0.0007312500000000216,0.004718750000000496
0.215,1.0,9.112407812499997,-3.378950000000002,3.055074999999997,-0.0823,0.0007328125000000217,0.0047546875000005
0.216,1.0,9.112184374999998,-3.379100000000002,3.054849999999997,-0.0823,0.0007343750000000219,0.004790625000000504
0.217,1.0,9.111960937499997,-3.379250000000002,3.054624999999997,-0.0823,0.0007359375000000221,0.0048265625000005075
0.218,1.0,9.111737499999997,-3.379400000000002,3.0543999999999967,-0.0823,0.0007375000000000222,0.004862500000000512
0.219,1.0,9.111514062499998,-3.3795500000000023,3.0541749999999968,-0.0823,0.0007390625000000225,0.004898437500000516
0.22,1.0,9.111290624999997,-3.3797000000000024,3.053949999999997,-0.0823,0.0007406250000000226,0.00493437500000052
0.221,1.0,9.111067187499998,-3.379850000000002,3.053724999999997,-0.0823,0.0007421875000000228,0.004970312500000524
0.222,1.0,9.110843749999997,-3.380000000000002,3.0534999999999966,-0.0823,0.0007437500000000229,0.005006250000000528
0.223,1.0,9.110620312499996,-3.380150000000002,3.0532749999999966,-0.0823,0.0007453125000000231,0.0050421875000005315
0.224,1.0,9.110396874999998,-3.3803000000000023,3.0530499999999967,-0.0823,0.0007468750000000233,0.005078125000000535
0.225,1.0,9.110173437499997,-3.3804500000000024,3.052824999999997,-0.0823,0.0007484375000000235,0.00511406250000054
0.226,1.0,9.109949999999998,-3.3806000000000025,3.0525999999999964,-0.0823,0.0007500000000000237,0.005150000000000544
0.227,1.0,9.109726562499997,-3.380750000000002,3.0523749999999965,-0.0823,0.0007515625000000238,0.005185937500000548
0.228,1.0,9.109503124999996,-3.3809000000000022,3.0521499999999966,-0.0823,0.000753125000000024,0.005221875000000552
0.229,1.0,9.109279687499997,-3.3810500000000023,3.0519249999999967,-0.0823,0.0007546875000000242,0.0052578125000005554
0.23,1.0,9.109056249999997,-3.3812000000000024,3.0516999999999963,-0.0823,0.0007562500000000244,0.00529375000000056
0.231,1.0,9.108832812499998,-3.3813500000000025,3.0514749999999964,-0.0823,0.0007578125000000245,0.005329687500000564
0.232,1.0,9.108609374999997,-3.3815000000000026,3.0512499999999965,-0.0823,0.0007593750000000247,0.005365625000000568
0.233,1.0,9.108385937499996,-3.3816500000000023,3.0510249999999965,-0.0823,0.0007609375000000248,0.005401562500000572
0.234,1.0,9.108162499999997,-3.3818000000000024,3.050799999999996,-0.0823,0.0007625000000000251,0.0054375000000005756
0.23500000000000001,1.0,9.107939062499996,-3.3819500000000025,3.0505749999999963,-0.0823,0.0007640625000000252,0.005473437500000579
0.23600000000000002,1.0,9.107715624999997,-3.3821000000000025,3.0503499999999963,-0.0823,0.0007656250000000254,0.005509375000000583
0.23700000000000002,1.0,9.107492187499997,-3.3822500000000026,3.0501249999999964,-0.0823,0.0007671875000000256,0.005545312500000588
0.23800000000000002,1.0,9.107268749999996,-3.3824000000000027,3.049899999999996,-0.0823,0.0007687500000000257,0.005581250000000592
0.23900000000000002,1.0,9.107045312499997,-3.3825500000000024,3.049674999999996,-0.0823,0.000770312500000026,0.005617187500000596
0.24,1.0,9.106821874999996,-3.3827000000000025,3.049449999999996,-0.0823,0.000771875000000026,0.005653125000000599
0.241,1.0,9.106598437499997,-3.3828500000000026,3.0492249999999963,-0.0823,0.0007734375000000263,0.0056890625000006025
0.242,1.0,9.106374999999996,-3.3830000000000027,3.048999999999996,-0.0823,0.0007750000000000264,0.005725000000000606
0.243,1.0,9.106151562499997,-3.3831500000000028,3.048774999999996,-0.0823,0.0007765625000000266,0.005760937500000611
0.244,1.0,9.105928124999997,-3.383300000000003,3.048549999999996,-0.0823,0.0007781250000000267,0.005796875000000615
0.245,1.0,9.105704687499996,-3.3834500000000025,3.048324999999996,-0.0823,0.0007796875000000269,0.005832812500000619
0.246,1.0,9.105481249999997,-3.3836000000000026,3.048099999999996,-0.0823,0.000781250000000027,0.005868750000000623
0.247,1.0,9.105257812499996,-3.3837500000000027,3.047874999999996,-0.0823,0.0007828125000000273,0.0059046875000006264
0.248,1.0,9.105034374999997,-3.383900000000003,3.047649999999996,-0.0823,0.0007843750000000275,0.00594062500000063
0.249,1.0,9.104810937499996,-3.384050000000003,3.047424999999996,-0.0823,0.0007859375000000276,0.005976562500000634
0.25,1.0,9.104587499999996,-3.384200000000003,3.0471999999999957,-0.0823,0.0007875000000000278,0.006012500000000639
0.251,1.0,9.104364062499997,-3.3843500000000026,3.0469749999999958,-0.0823,0.0007890625000000279,0.006048437500000643
0.252,1.0,9.104140624999996,-3.3845000000000027,3.046749999999996,-0.0823,0.0007906250000000282,0.0060843750000006466
0.253,1.0,9.103917187499997,-3.384650000000003,3.046524999999996,-0.0823,0.0007921875000000283,0.00612031250000065
0.254,1.0,9.103693749999996,-3.384800000000003,3.046299999999996,-0.0823,0.0007937500000000285,0.006156250000000654
0.255,1.0,9.103470312499995,-3.384950000000003,3.0460749999999956,-0.0823,0.0007953125000000286,0.006192187500000659
0.256,1.0,9.103246874999996,-3.385100000000003,3.0458499999999957,-0.0823,0.0007968750000000288,0.006228125000000662
0.257,1.0,9.103023437499996,-3.3852500000000028,3.045624999999996,-0.0823,0.0007984375000000289,0.006264062500000667
0.258,1.0,9.102800000000004,-3.385399999999996,3.0454,-0.08230000000000005,0.000799999999999914,0.0062999999999995985
0.259,1.0,9.102946153846156,-3.3851784615384575,3.0454,-0.08230307692307698,0.0007953846153845291,0.006278461538461136
0.26,1.0,9.103092307692311,-3.384956923076919,3.0454,-0.0823061538461539,0.0007907692307691444,0.006256923076922673
0.261,1.0,9.103238461538464,-3.3847353846153805,3.0454,-0.08230923076923083,0.0007861538461537596,0.0062353846153842115
0.262,1.0,9.103384615384618,-3.384513846153842,3.0454,-0.08231230769230775,0.0007815384615383748,0.006213846153845749
0.263,1.0,9.103530769230773,-3.3842923076923035,3.0454,-0.08231538461538467,0.00077692307692299,0.006192307692307286
0.264,1.0,9.103676923076925,-3.384070769230765,3.0454,-0.08231846153846159,0.0007723076923076053,0.006170769230768825
0.265,1.0,9.10382307692308,-3.383849230769227,3.0454,-0.08232153846153852,0.0007676923076922205,0.006149230769230362
0.266,1.0,9.103969230769234,-3.3836276923076882,3.0454,-0.08232461538461544,0.0007630769230768357,0.006127692307691899
0.267,1.0,9.104115384615387,-3.38340615384615,3.0454,-0.08232769230769237,0.000758461538461451,0.006106153846153438
0.268,1.0,9.104261538461541,-3.3831846153846112,3.0454,-0.08233076923076929,0.0007538461538460662,0.006084615384614975
0.269,1.0,9.104407692307696,-3.382963076923073,3.0454,-0.08233384615384622,0.0007492307692306814,0.0060630769230765125
0.27,1.0,9.104553846153848,-3.3827415384615342,3.0454,-0.08233692307692314,0.0007446153846152965,0.006041538461538051
0.271,1.0,9.104700000000003,-3.382519999999996,3.0454,-0.08234000000000005,0.0007399999999999118,0.006019999999999588
0.272,1.0,9.104846153846157,-3.3822984615384573,3.0454,-0.08234307692307698,0.000735384615384527,0.005998461538461126
0.273,1.0,9.10499230769231,-3.382076923076919,3.0454,-0.0823461538461539,0.0007307692307691422,0.005976923076922664
0.274,1.0,9.105138461538465,-3.3818553846153807,3.0454,-0.08234923076923083,0.0007261538461537574,0.005955384615384201
0.275,1.0,9.105284615384619,-3.381633846153842,3.0454,-0.08235230769230775,0.0007215384615383727,0.005933846153845739
0.276,1.0,9.105430769230772,-3.3814123076923037,3.0454,-0.08235538461538468,0.0007169230769229879,0.005912307692307277
0.277,1.0,9.105576923076926,-3.381190769230765,3.0454,-0.0823584615384616,0.0007123076923076031,0.005890769230768814
0.278,1.0,9.10572307692308,-3.3809692307692267,3.0454,-0.08236153846153853,0.0007076923076922183,0.005869230769230352
0.279,1.0,9.105869230769233,-3.380747692307688,3.0454,-0.08236461538461544,0.0007030769230768336,0.00584769230769189
0.28,1.0,9.106015384615388,-3.3805261538461497,3.0454,-0.08236769230769236,0.0006984615384614488,0.005826153846153427
0.281,1.0,9.10616153846154,-3.380304615384611,3.0454,-0.08237076923076929,0.000693846153846064,0.005804615384614965
0.28200000000000003,1.0,9.106307692307695,-3.3800830769230727,3.0454,-0.08237384615384621,0.0006892307692306792,0.005783076923076503
0.28300000000000003,1.0,9.10645384615385,-3.379861538461534,3.0454,-0.08237692307692314,0.0006846153846152944,0.0057615384615380405
0.28400000000000003,1.0,9.106600000000002,-3.3796399999999958,3.0454,-0.08238000000000006,0.0006799999999999096,0.005739999999999578
0.28500000000000003,1.0,9.106746153846156,-3.3794184615384575,3.0454,-0.08238307692307699,0.0006753846153845248,0.005718461538461116
0.28600000000000003,1.0,9.106892307692311,-3.3791969230769188,3.0454,-0.0823861538461539,0.0006707692307691401,0.005696923076922654
0.28700000000000003,1.0,9.107038461538464,-3.3789753846153805,3.0454,-0.08238923076923083,0.0006661538461537553,0.005675384615384191
0.28800000000000003,1.0,9.107184615384618,-3.3787538461538418,3.0454,-0.08239230769230775,0.0006615384615383705,0.005653846153845729
0.289,1.0,9.107330769230773,-3.3785323076923035,3.0454,-0.08239538461538468,0.000656923076922986,0.0056323076923072675
0.29,1.0,9.107476923076925,-3.378310769230765,3.0454,-0.0823984615384616,0.0006523076923076012,0.005610769230768806
0.291,1.0,9.10762307692308,-3.3780892307692265,3.0454,-0.08240153846153853,0.0006476923076922164,0.005589230769230343
0.292,1.0,9.107769230769234,-3.377867692307688,3.0454,-0.08240461538461545,0.0006430769230768317,0.005567692307691881
0.293,1.0,9.107915384615387,-3.3776461538461495,3.0454,-0.08240769230769238,0.0006384615384614469,0.005546153846153419
0.294,1.0,9.108061538461541,-3.3774246153846113,3.0454,-0.08241076923076929,0.0006338461538460621,0.005524615384614956
0.295,1.0,9.108207692307696,-3.3772030769230725,3.0454,-0.08241384615384621,0.0006292307692306774,0.005503076923076494
0.296,1.0,9.108353846153848,-3.3769815384615343,3.0454,-0.08241692307692314,0.0006246153846152925,0.005481538461538032
0.297,1.0,9.108500000000003,-3.3767599999999955,3.0454,-0.08242000000000006,0.0006199999999999077,0.005459999999999569
0.298,1.0,9.108646153846156,-3.3765384615384573,3.0454,-0.08242307692307699,0.0006153846153845229,0.005438461538461107
0.299,1.0,9.10879230769231,-3.3763169230769186,3.0454,-0.08242615384615391,0.0006107692307691381,0.005416923076922645
0.3,1.0,9.108938461538465,-3.3760953846153803,3.0454,-0.08242923076923084,0.0006061538461537534,0.0053953846153841824
0.301,1.0,9.109084615384617,-3.3758738461538416,3.0454,-0.08243230769230776,0.0006015384615383686,0.00537384615384572
0.302,1.0,9.109230769230772,-3.3756523076923033,3.0454,-0.08243538461538467,0.0005969230769229839,0.005352307692307257
0.303,1.0,9.109376923076926,-3.375430769230765,3.0454,-0.0824384615384616,0.0005923076923075991,0.0053307692307687955
0.304,1.0,9.109523076923079,-3.3752092307692263,3.0454,-0.08244153846153852,0.0005876923076922143,0.005309230769230333
0.305,1.0,9.109669230769233,-3.374987692307688,3.0454,-0.08244461538461545,0.0005830769230768295,0.00528769230769187
0.306,1.0,9.109815384615388,-3.3747661538461493,3.0454,-0.08244769230769237,0.0005784615384614447,0.005266153846153409
0.307,1.0,9.10996153846154,-3.374544615384611,3.0454,-0.0824507692307693,0.00057384615384606,0.005244615384614946
0.308,1.0,9.110107692307695,-3.3743230769230723,3.0454,-0.08245384615384622,0.0005692307692306751,0.005223076923076483
0.309,1.0,9.11025384615385,-3.374101538461534,3.0454,-0.08245692307692314,0.0005646153846152903,0.005201538461538022
0.31,1.0,9.110400000000002,-3.3738799999999953,3.0454,-0.08246000000000006,0.0005599999999999056,0.005179999999999559
0.311,1.0,9.110546153846157,-3.373658461538457,3.0454,-0.08246307692307699,0.0005553846153845208,0.0051584615384610965
0.312,1.0,9.110692307692311,-3.3734369230769183,3.0454,-0.08246615384615391,0.000550769230769136,0.005136923076922635
0.313,1.0,9.110838461538464,-3.37321538461538,3.0454,-0.08246923076923084,0.0005461538461537512,0.005115384615384172
0.314,1.0,9.110984615384618,-3.372993846153842,3.0454,-0.08247230769230776,0.0005415384615383664,0.00509384615384571
0.315,1.0,9.111130769230773,-3.372772307692303,3.0454,-0.08247538461538469,0.0005369230769229817,0.005072307692307248
0.316,1.0,9.111276923076925,-3.372550769230765,3.0454,-0.08247846153846161,0.000532307692307597,0.005050769230768785
0.317,1.0,9.11142307692308,-3.372329230769226,3.0454,-0.08248153846153852,0.0005276923076922122,0.005029230769230323
0.318,1.0,9.111569230769232,-3.372107692307688,3.0454,-0.08248461538461545,0.0005230769230768274,0.005007692307691861
0.319,1.0,9.111715384615387,-3.371886153846149,3.0454,-0.08248769230769237,0.0005184615384614425,0.004986153846153398
0.32,1.0,9.111861538461541,-3.371664615384611,3.0454,-0.0824907692307693,0.0005138461538460577,0.004964615384614936
0.321,1.0,9.112007692307694,-3.371443076923072,3.0454,-0.08249384615384622,0.0005092307692306729,0.004943076923076474
0.322,1.0,9.112153846153848,-3.371221538461534,3.0454,-0.08249692307692315,0.0005046153846152882,0.004921538461538011
0.323,1.0,9.1123,-3.371000000000005,3.0454000000000017,-0.08250000000000003,0.0004999999999997384,0.004900000000000883
0.324,1.0,9.1123,-3.371225000000005,3.0454750000000015,-0.08250156250000004,0.0004874999999997426,0.004942187500000869
0.325,1.0,9.1123,-3.3714500000000047,3.0455500000000013,-0.08250312500000004,0.00047499999999974673,0.0049843750000008544
0.326,1.0,9.1123,-3.3716750000000046,3.0456250000000016,-0.08250468750000003,0.0004624999999997509,0.00502656250000084
0.327,1.0,9.1123,-3.3719000000000046,3.0457000000000014,-0.08250625000000003,0.00044999999999975507,0.005068750000000827
0.328,1.0,9.1123,-3.3721250000000045,3.0457750000000012,-0.08250781250000003,0.00043749999999975926,0.005110937500000813
0.329,1.0,9.1123,-3.3723500000000044,3.0458500000000015,-0.08250937500000004,0.0004249999999997634,0.0051531250000007986
0.33,1.0,9.1123,-3.3725750000000043,3.0459250000000013,-0.08251093750000003,0.00041249999999976754,0.005195312500000784
0.331,1.0,9.1123,-3.3728000000000042,3.046000000000001,-0.08251250000000003,0.00039999999999977174,0.00523750000000077
0.332,1.0,9.1123,-3.373025000000004,3.0460750000000014,-0.08251406250000003,0.0003874999999997759,0.005279687500000756
0.333,1.0,9.1123,-3.373250000000004,3.0461500000000012,-0.08251562500000004,0.00037499999999978,0.005321875000000743
0.334,1.0,9.1123,-3.373475000000004,3.046225000000001,-0.08251718750000003,0.0003624999999997842,0.0053640625000007285
0.335,1.0,9.1123,-3.373700000000004,3.0463000000000013,-0.08251875000000003,0.0003499999999997884,0.005406250000000714
0.336,1.0,9.1123,-3.373925000000004,3.046375000000001,-0.08252031250000003,0.0003374999999997925,0.0054484375000007
0.337,1.0,9.1123,-3.3741500000000038,3.046450000000001,-0.08252187500000004,0.0003249999999997967,0.005490625000000686
0.338,1.0,9.1123,-3.3743750000000037,3.0465250000000013,-0.08252343750000003,0.0003124999999998009,0.005532812500000672
0.339,1.0,9.1123,-3.3746000000000036,3.046600000000001,-0.08252500000000003,0.00029999999999980503,0.0055750000000006576
0.34,1.0,9.1123,-3.3748250000000035,3.046675000000001,-0.08252656250000003,0.0002874999999998092,0.005617187500000644
0.341,1.0,9.1123,-3.3750500000000034,3.046750000000001,-0.08252812500000002,0.00027499999999981337,0.00565937500000063
0.342,1.0,9.1123,-3.3752750000000034,3.046825000000001,-0.08252968750000003,0.0002624999999998175,0.005701562500000616
0.343,1.0,9.1123,-3.3755000000000033,3.046900000000001,-0.08253125000000003,0.0002499999999998217,0.005743750000000602
0.34400000000000003,1.0,9.1123,-3.375725000000003,3.046975000000001,-0.08253281250000002,0.00023749999999982585,0.0057859375000005875
0.34500000000000003,1.0,9.1123,-3.375950000000003,3.047050000000001,-0.08253437500000002,0.00022499999999983,0.005828125000000574
0.34600000000000003,1.0,9.1123,-3.376175000000003,3.0471250000000007,-0.08253593750000003,0.0002124999999998342,0.00587031250000056
0.34700000000000003,1.0,9.1123,-3.376400000000003,3.047200000000001,-0.08253750000000003,0.00019999999999983833,0.005912500000000546
0.34800000000000003,1.0,9.1123,-3.376625000000003,3.047275000000001,-0.08253906250000002,0.00018749999999984252,0.005954687500000532
0.34900000000000003,1.0,9.1123,-3.376850000000003,3.0473500000000007,-0.08254062500000002,0.00017499999999984666,0.005996875000000517
0.35000000000000003,1.0,9.1123,-3.3770750000000027,3.047425000000001,-0.08254218750000003,0.00016249999999985086,0.006039062500000503
0.35100000000000003,1.0,9.1123,-3.3773000000000026,3.0475000000000008,-0.08254375000000003,0.000149999999999855,0.006081250000000489
0.352,1.0,9.1123,-3.3775250000000026,3.0475750000000006,-0.08254531250000002,0.00013749999999985985,0.006123437500000473
0.353,1.0,9.1123,-3.3777500000000025,3.047650000000001,-0.08254687500000002,0.00012499999999986404,0.006165625000000459
0.354,1.0,9.1123,-3.3779750000000024,3.0477250000000007,-0.08254843750000002,0.00011249999999986819,0.006207812500000445
0.355,1.0,9.1123,-3.3782000000000023,3.0478000000000005,-0.08255000000000003,9.999999999987233e-05,0.0062500000000004306
0.356,1.0,9.1123,-3.3784250000000022,3.047875000000001,-0.08255156250000002,8.749999999987652e-05,0.006292187500000417
0.357,1.0,9.1123,-3.378650000000002,3.0479500000000006,-0.08255312500000002,7.499999999988066e-05,0.006334375000000403
0.358,1.0,9.1123,-3.378875000000002,3.0480250000000004,-0.08255468750000002,6.249999999988486e-05,0.006376562500000389
0.359,1.0,9.1123,-3.379100000000002,3.0481000000000007,-0.08255625000000003,4.9999999999889e-05,0.006418750000000375
0.36,1.0,9.1123,-3.379325000000002,3.0481750000000005,-0.08255781250000002,3.749999999989314e-05,0.0064609375000003605
0.361,1.0,9.1123,-3.379550000000002,3.0482500000000003,-0.08255937500000002,2.4999999999897337e-05,0.006503125000000347
0.362,1.0,9.1123,-3.3797750000000018,3.0483250000000006,-0.08256093750000001,1.2499999999901479e-05,0.006545312500000332
0.363,1.0,9.1123,-3.3800000000000017,3.0484000000000004,-0.08256250000000001,-9.432558900623889e-17,0.006587500000000319
0.364,1.0,9.1123,-3.3802250000000016,3.0484750000000003,-0.08256406250000002,-1.250000000009013e-05,0.006629687500000305
0.365,1.0,9.1123,-3.3804500000000015,3.0485500000000005,-0.08256562500000002,-2.5000000000086043e-05,0.00667187500000029
0.366,1.0,9.1123,-3.3806750000000014,3.0486250000000004,-0.08256718750000001,-3.750000000008185e-05,0.006714062500000276
0.367,1.0,9.1123,-3.3809000000000013,3.0487,-0.08256875000000001,-5.000000000007765e-05,0.006756250000000262
0.368,1.0,9.1123,-3.3811250000000013,3.0487750000000005,-0.08257031250000002,-6.250000000007356e-05,0.006798437500000249
0.369,1.0,9.1123,-3.381350000000001,3.0488500000000003,-0.08257187500000002,-7.500000000006937e-05,0.0068406250000002345
0.37,1.0,9.1123,-3.381575000000001,3.048925,-0.08257343750000001,-8.750000000006517e-05,0.00688281250000022
0.371,1.0,9.1123,-3.381800000000001,3.0490000000000004,-0.08257500000000001,-0.00010000000000006109,0.006925000000000206
0.372,1.0,9.1123,-3.382025000000001,3.049075,-0.08257656250000002,-0.00011250000000005689,0.006967187500000192
0.373,1.0,9.1123,-3.3822500000000013,3.04915,-0.08257812500000002,-0.0001250000000000527,0.007009375000000179
0.374,1.0,9.1123,-3.3824750000000012,3.0492250000000003,-0.08257968750000001,-0.0001375000000000485,0.007051562500000164
0.375,1.0,9.1123,-3.382700000000001,3.0493,-0.08258125000000001,-0.0001500000000000444,0.00709375000000015
0.376,1.0,9.1123,-3.382925000000001,3.049375,-0.0825828125,-0.00016250000000004022,0.007135937500000136
0.377,1.0,9.1123,-3.383150000000001,3.04945,-0.08258437500000002,-0.00017500000000003602,0.007178125000000122
0.378,1.0,9.1123,-3.383375000000001,3.049525,-0.08258593750000001,-0.00018750000000003193,0.007220312500000108
0.379,1.0,9.1123,-3.383600000000001,3.0496,-0.08258750000000001,-0.00020000000000002774,0.0072625000000000935
0.38,1.0,9.1123,-3.3838250000000007,3.049675,-0.0825890625,-0.00021250000000002354,0.00730468750000008
0.381,1.0,9.1123,-3.3840500000000007,3.04975,-0.08259062500000001,-0.00022500000000001935,0.007346875000000065
0.382,1.0,9.1123,-3.3842750000000006,3.049825,-0.08259218750000001,-0.00023750000000001526,0.007389062500000052
0.383,1.0,9.1123,-3.3845000000000005,3.0499,-0.08259375000000001,-0.00025000000000001106,0.007431250000000038
0.384,1.0,9.1123,-3.3847250000000004,3.049975,-0.0825953125,-0.00026250000000000687,0.0074734375000000235
0.385,1.0,9.1123,-3.3849500000000003,3.0500499999999997,-0.082596875,-0.0002750000000000028,0.00751562500000001
0.386,1.0,9.1123,-3.3851750000000003,3.050125,-0.08259843750000001,-0.0002874999999999986,0.007557812499999995
0.387,1.0,9.1123,-3.3854,3.0502,-0.0826,-0.0002999999999999944,0.007599999999999982
0.388,1.0,9.112226153846153,-3.3854738461538463,3.050273846153846,-0.0826,-0.00027846153846154724,0.007581538461538469
0.389,1.0,9.112152307692307,-3.3855476923076924,3.050347692307692,-0.0826,-0.0002569230769230849,0.00756307692307693
0.39,1.0,9.112078461538461,-3.3856215384615385,3.050421538461538,-0.0826,-0.0002353846153846226,0.007544615384615391
0.391,1.0,9.112004615384615,-3.385695384615385,3.0504953846153846,-0.0826,-0.0002138461538461603,0.007526153846153852
0.392,1.0,9.111930769230769,-3.385769230769231,3.0505692307692307,-0.0826,-0.000192307692307698,0.0075076923076923124
0.393,1.0,9.111856923076923,-3.385843076923077,3.050643076923077,-0.0826,-0.00017076923076923567,0.007489230769230773
0.394,1.0,9.111783076923077,-3.3859169230769233,3.050716923076923,-0.0826,-0.00014923076923077338,0.007470769230769234
0.395,1.0,9.11170923076923,-3.3859907692307694,3.050790769230769,-0.0826,-0.00012769230769231105,0.007452307692307696
0.396,1.0,9.111635384615385,-3.3860646153846155,3.050864615384615,-0.0826,-0.00010615384615384875,0.007433846153846156
0.397,1.0,9.111561538461538,-3.3861384615384615,3.0509384615384616,-0.0826,-8.461538461538643e-05,0.007415384615384617
0.398,1.0,9.111487692307692,-3.386212307692308,3.0510123076923077,-0.0826,-6.307692307692413e-05,0.007396923076923078
0.399,1.0,9.111413846153846,-3.386286153846154,3.051086153846154,-0.0826,-4.1538461538461835e-05,0.007378461538461539
0.4,1.0,9.11134,-3.3863600000000003,3.05116,-0.0826,-1.999999999999951e-05,0.007359999999999999
0.401,1.0,9.111266153846154,-3.3864338461538463,3.051233846153846,-0.0826,1.5384615384628143e-06,0.00734153846153846
0.402,1.0,9.111192307692308,-3.3865076923076924,3.051307692307692,-0.0826,2.3076923076925085e-05,0.007323076923076922
0.403,1.0,9.111118461538462,-3.3865815384615385,3.051381538461538,-0.0826,4.461538461538741e-05,0.0073046153846153825
0.404,1.0,9.111044615384614,-3.3866553846153846,3.0514553846153847,-0.0826,6.615384615384973e-05,0.007286153846153843
0.405,1.0,9.110970769230768,-3.386729230769231,3.0515292307692308,-0.0826,8.769230769231206e-05,0.007267692307692304
0.406,1.0,9.110896923076922,-3.3868030769230772,3.051603076923077,-0.0826,0.00010923076923077433,0.007249230769230765
0.40700000000000003,1.0,9.110823076923076,-3.3868769230769233,3.051676923076923,-0.0826,0.00013076923076923665,0.0072307692307692255
0.40800000000000003,1.0,9.11074923076923,-3.3869507692307694,3.051750769230769,-0.0826,0.00015230769230769898,0.007212307692307686
0.40900000000000003,1.0,9.110675384615384,-3.3870246153846155,3.051824615384615,-0.0826,0.00017384615384616125,0.007193846153846148
0.41000000000000003,1.0,9.110601538461538,-3.3870984615384616,3.0518984615384617,-0.0826,0.00019538461538462357,0.007175384615384609
0.41100000000000003,1.0,9.110527692307691,-3.3871723076923077,3.0519723076923078,-0.0826,0.00021692307692308584,0.007156923076923069
0.41200000000000003,1.0,9.110453846153845,-3.3872461538461542,3.052046153846154,-0.0826,0.00023846153846154822,0.00713846153846153
0.41300000000000003,1.0,9.11038,-3.3873200000000003,3.05212,-0.0826,0.0002600000000000105,0.007119999999999991
0.41400000000000003,1.0,9.110306153846153,-3.3873938461538464,3.052193846153846,-0.0826,0.0002815384615384729,0.007101538461538452
0.41500000000000004,1.0,9.110232307692307,-3.3874676923076925,3.052267692307692,-0.0826,0.00030307692307693514,0.007083076923076912
0.41600000000000004,1.0,9.110158461538461,-3.3875415384615386,3.0523415384615387,-0.0826,0.0003246153846153974,0.007064615384615374
0.417,1.0,9.110084615384615,-3.3876153846153847,3.0524153846153848,-0.0826,0.0003461538461538586,0.007046153846153836
0.418,1.0,9.110010769230769,-3.387689230769231,3.052489230769231,-0.0826,0.00036769230769232087,0.0070276923076922964
0.419,1.0,9.109936923076923,-3.3877630769230773,3.052563076923077,-0.0826,0.00038923076923078314,0.007009230769230757
0.42,1.0,9.109863076923077,-3.3878369230769234,3.052636923076923,-0.0826,0.0004107692307692455,0.006990769230769218
0.421,1.0,9.10978923076923,-3.3879107692307695,3.052710769230769,-0.0826,0.0004323076923077078,0.00697230769230768
0.422,1.0,9.109715384615384,-3.3879846153846156,3.0527846153846157,-0.0826,0.00045384615384617006,0.00695384615384614
0.423,1.0,9.109641538461538,-3.3880584615384617,3.0528584615384617,-0.0826,0.00047538461538463244,0.006935384615384601
0.424,1.0,9.109567692307692,-3.3881323076923078,3.052932307692308,-0.0826,0.0004969230769230947,0.006916923076923062
0.425,1.0,9.109493846153846,-3.388206153846154,3.053006153846154,-0.0826,0.000518461538461557,0.006898461538461523
0.426,1.0,9.10942,-3.3882800000000004,3.05308,-0.0826,0.0005400000000000194,0.006879999999999983
0.427,1.0,9.109346153846154,-3.3883538461538465,3.053153846153846,-0.0826,0.0005615384615384816,0.006861538461538445
0.428,1.0,9.109272307692308,-3.3884276923076926,3.053227692307692,-0.0826,0.000583076923076944,0.006843076923076906
0.429,1.0,9.109198461538462,-3.3885015384615387,3.0533015384615387,-0.0826,0.0006046153846154063,0.0068246153846153665
0.43,1.0,9.109124615384616,-3.3885753846153848,3.053375384615385,-0.0826,0.0006261538461538685,0.006806153846153827
0.431,1.0,9.10905076923077,-3.388649230769231,3.053449230769231,-0.0826,0.0006476923076923309,0.006787692307692288
0.432,1.0,9.108976923076924,-3.388723076923077,3.053523076923077,-0.0826,0.0006692307692307933,0.006769230769230749
0.433,1.0,9.108903076923077,-3.3887969230769235,3.053596923076923,-0.0826,0.0006907692307692556,0.0067507692307692095
0.434,1.0,9.108829230769231,-3.3888707692307696,3.053670769230769,-0.0826,0.0007123076923077178,0.006732307692307671
0.435,1.0,9.108755384615383,-3.3889446153846157,3.0537446153846157,-0.0826,0.0007338461538461802,0.006713846153846132
0.436,1.0,9.108681538461537,-3.3890184615384618,3.053818461538462,-0.0826,0.0007553846153846426,0.006695384615384593
0.437,1.0,9.108607692307691,-3.389092307692308,3.053892307692308,-0.0826,0.0007769230769231047,0.006676923076923053
0.438,1.0,9.108533846153845,-3.389166153846154,3.053966153846154,-0.0826,0.0007984615384615671,0.006658461538461514
0.439,1.0,9.10846,-3.38924,3.05404,-0.0826,0.0008200000000000295,0.006639999999999975
0.44,1.0,9.108386153846153,-3.3893138461538466,3.054113846153846,-0.0826,0.0008415384615384916,0.006621538461538436
0.441,1.0,9.108312307692307,-3.3893876923076927,3.0541876923076927,-0.0826,0.000863076923076954,0.006603076923076897
0.442,1.0,9.10823846153846,-3.3894615384615387,3.054261538461539,-0.0826,0.0008846153846154164,0.006584615384615357
0.443,1.0,9.108164615384615,-3.389535384615385,3.054335384615385,-0.0826,0.0009061538461538786,0.006566153846153819
0.444,1.0,9.108090769230769,-3.389609230769231,3.054409230769231,-0.0826,0.0009276923076923409,0.0065476923076922796
0.445,1.0,9.108016923076923,-3.389683076923077,3.054483076923077,-0.0826,0.0009492307692308033,0.00652923076923074
0.446,1.0,9.107943076923076,-3.389756923076923,3.054556923076923,-0.0826,0.0009707692307692657,0.006510769230769201
0.447,1.0,9.10786923076923,-3.3898307692307696,3.0546307692307697,-0.0826,0.0009923076923077279,0.006492307692307662
0.448,1.0,9.107795384615384,-3.3899046153846157,3.054704615384616,-0.0826,0.0010138461538461902,0.0064738461538461235
0.449,1.0,9.107721538461538,-3.389978461538462,3.054778461538462,-0.0826,0.0010353846153846526,0.006455384615384584
0.45,1.0,9.107647692307692,-3.390052307692308,3.054852307692308,-0.0826,0.0010569230769231148,0.006436923076923045
0.451,1.0,9.107573846153846,-3.390126153846154,3.054926153846154,-0.0826,0.0010784615384615772,0.006418461538461506
0.452,1.0,9.1075,-3.3902,3.055,-0.0826,0.0010999999999999803,0.006399999999999969
0.453,1.0,9.1075,-3.3902,3.0550738461538463,-0.0826,0.0010892307692307493,0.0063830769230768915
0.454,1.0,9.1075,-3.3902,3.055147692307693,-0.0826,0.001078461538461518,0.006366153846153814
0.455,1.0,9.1075,-3.3902,3.055221538461539,-0.0826,0.0010676923076922869,0.006349230769230736
0.456,1.0,9.1075,-3.3902,3.055295384615385,-0.0826,0.0010569230769230558,0.006332307692307659
0.457,1.0,9.1075,-3.3902,3.055369230769231,-0.0826,0.0010461538461538245,0.006315384615384581
0.458,1.0,9.1075,-3.3902,3.055443076923077,-0.0826,0.0010353846153845934,0.006298461538461504
0.459,1.0,9.1075,-3.3902,3.0555169230769232,-0.0826,0.0010246153846153623,0.006281538461538427
0.46,1.0,9.1075,-3.3902,3.0555907692307693,-0.0826,0.001013846153846131,0.006264615384615349
0.461,1.0,9.1075,-3.3902,3.055664615384616,-0.0826,0.0010030769230769,0.006247692307692272
0.462,1.0,9.1075,-3.3902,3.055738461538462,-0.0826,0.0009923076923076689,0.006230769230769194
0.463,1.0,9.1075,-3.3902,3.055812307692308,-0.0826,0.0009815384615384376,0.006213846153846117
0.464,1.0,9.1075,-3.3902,3.055886153846154,-0.0826,0.0009707692307692065,0.006196923076923039
0.465,1.0,9.1075,-3.3902,3.0559600000000002,-0.0826,0.0009599999999999753,0.0061799999999999616
0.466,1.0,9.1075,-3.3902,3.0560338461538463,-0.0826,0.0009492307692307441,0.006163076923076884
0.467,1.0,9.1075,-3.3902,3.0561076923076924,-0.0826,0.000938461538461513,0.006146153846153806
0.468,1.0,9.1075,-3.3902,3.056181538461539,-0.0826,0.0009276923076922818,0.006129230769230729
0.46900000000000003,1.0,9.1075,-3.3902,3.056255384615385,-0.0826,0.0009169230769230507,0.006112307692307651
0.47000000000000003,1.0,9.1075,-3.3902,3.056329230769231,-0.0826,0.0009061538461538196,0.006095384615384574
0.47100000000000003,1.0,9.1075,-3.3902,3.0564030769230772,-0.0826,0.0008953846153845884,0.006078461538461496
0.47200000000000003,1.0,9.1075,-3.3902,3.0564769230769233,-0.0826,0.0008846153846153572,0.006061538461538419
0.47300000000000003,1.0,9.1075,-3.3902,3.0565507692307694,-0.0826,0.0008738461538461261,0.006044615384615341
0.47400000000000003,1.0,9.1075,-3.3902,3.0566246153846155,-0.0826,0.0008630769230768949,0.0060276923076922635
0.47500000000000003,1.0,9.1075,-3.3902,3.056698461538462,-0.0826,0.0008523076923076637,0.006010769230769186
0.47600000000000003,1.0,9.1075,-3.3902,3.056772307692308,-0.0826,0.0008415384615384327,0.005993846153846108
0.47700000000000004,1.0,9.1075,-3.3902,3.056846153846154,-0.0826,0.0008307692307692014,0.005976923076923031
0.47800000000000004,1.0,9.1075,-3.3902,3.0569200000000003,-0.0826,0.0008199999999999703,0.005959999999999953
0.47900000000000004,1.0,9.1075,-3.3902,3.0569938461538464,-0.0826,0.0008092307692307391,0.005943076923076876
0.48,1.0,9.1075,-3.3902,3.0570676923076925,-0.0826,0.0007984615384615085,0.005926153846153799
0.481,1.0,9.1075,-3.3902,3.0571415384615386,-0.0826,0.0007876923076922775,0.005909230769230722
0.482,1.0,9.1075,-3.3902,3.057215384615385,-0.0826,0.0007769230769230462,0.005892307692307645
0.483,1.0,9.1075,-3.3902,3.057289230769231,-0.0826,0.0007661538461538151,0.005875384615384567
0.484,1.0,9.1075,-3.3902,3.0573630769230773,-0.0826,0.000755384615384584,0.0058584615384614895
0.485,1.0,9.1075,-3.3902,3.0574369230769234,-0.0826,0.0007446153846153527,0.005841538461538412
0.486,1.0,9.1075,-3.3902,3.0575107692307695,-0.0826,0.0007338461538461216,0.005824615384615334
0.487,1.0,9.1075,-3.3902,3.0575846153846156,-0.0826,0.0007230769230768904,0.005807692307692257
0.488,1.0,9.1075,-3.3902,3.0576584615384617,-0.0826,0.0007123076923076592,0.005790769230769179
0.489,1.0,9.1075,-3.3902,3.057732307692308,-0.0826,0.0007015384615384282,0.005773846153846102
0.49,1.0,9.1075,-3.3902,3.0578061538461543,-0.0826,0.000690769230769197,0.005756923076923024
0.491,1.0,9.1075,-3.3902,3.0578800000000004,-0.0826,0.0006799999999999658,0.0057399999999999465
0.492,1.0,9.1075,-3.3902,3.0579538461538465,-0.0826,0.0006692307692307347,0.005723076923076869
0.493,1.0,9.1075,-3.3902,3.0580276923076926,-0.0826,0.0006584615384615035,0.005706153846153791
0.494,1.0,9.1075,-3.3902,3.0581015384615386,-0.0826,0.0006476923076922723,0.005689230769230714
0.495,1.0,9.1075,-3.3902,3.058175384615385,-0.0826,0.0006369230769230412,0.005672307692307636
0.496,1.0,9.1075,-3.3902,3.0582492307692313,-0.0826,0.0006261538461538101,0.005655384615384559
0.497,1.0,9.1075,-3.3902,3.0583230769230774,-0.0826,0.0006153846153845789,0.005638461538461481
0.498,1.0,9.1075,-3.3902,3.0583969230769235,-0.0826,0.0006046153846153478,0.0056215384615384036
0.499,1.0,9.1075,-3.3902,3.0584707692307695,-0.0826,0.0005938461538461166,0.005604615384615326
0.5,1.0,9.1075,-3.3902,3.0585446153846156,-0.0826,0.0005830769230768854,0.005587692307692248
0.501,1.0,9.1075,-3.3902,3.0586184615384617,-0.0826,0.0005723076923076542,0.005570769230769171
0.502,1.0,9.1075,-3.3902,3.0586923076923083,-0.0826,0.0005615384615384231,0.005553846153846093
0.503,1.0,9.1075,-3.3902,3.0587661538461544,-0.0826,0.000550769230769192,0.005536923076923016
0.504,1.0,9.1075,-3.3902,3.0588400000000004,-0.0826,0.0005399999999999608,0.005519999999999938
0.505,1.0,9.1075,-3.3902,3.0589138461538465,-0.0826,0.0005292307692307297,0.005503076923076861
0.506,1.0,9.1075,-3.3902,3.0589876923076926,-0.0826,0.0005184615384614985,0.005486153846153783
0.507,1.0,9.1075,-3.3902,3.0590615384615387,-0.0826,0.0005076923076922673,0.0054692307692307054
0.508,1.0,9.1075,-3.3902,3.059135384615385,-0.0826,0.0004969230769230362,0.005452307692307628
0.509,1.0,9.1075,-3.3902,3.0592092307692313,-0.0826,0.00048615384615380503,0.00543538461538455
0.51,1.0,9.1075,-3.3902,3.0592830769230774,-0.0826,0.00047538461538457384,0.005418461538461473
0.511,1.0,9.1075,-3.3902,3.0593569230769235,-0.0826,0.00046461538461534265,0.005401538461538395
0.512,1.0,9.1075,-3.3902,3.0594307692307696,-0.0826,0.00045384615384611157,0.0053846153846153185
0.513,1.0,9.1075,-3.3902,3.0595046153846157,-0.0826,0.0004430769230768804,0.005367692307692241
0.514,1.0,9.1075,-3.3902,3.059578461538462,-0.0826,0.0004323076923076492,0.005350769230769163
0.515,1.0,9.1075,-3.3902,3.059652307692308,-0.0826,0.0004215384615384181,0.005333846153846086
0.516,1.0,9.1075,-3.3902,3.0597261538461544,-0.0826,0.0004107692307691869,0.005316923076923008
0.517,1.0,9.1075,-3.3902,3.0598000000000005,-0.08260000000000002,0.00039999999999989735,0.005299999999999743
0.518,1.0,9.107575,-3.3902,3.0599500000000006,-0.08260468750000002,0.00037499999999989457,0.005237499999999736
0.519,1.0,9.10765,-3.3902,3.0601000000000007,-0.08260937500000003,0.0003499999999998918,0.005174999999999729
0.52,1.0,9.107725,-3.3902,3.060250000000001,-0.08261406250000003,0.000324999999999889,0.005112499999999722
0.521,1.0,9.107800000000001,-3.3902,3.060400000000001,-0.08261875000000003,0.00029999999999988624,0.005049999999999715
0.522,1.0,9.107875,-3.3902,3.0605500000000005,-0.08262343750000002,0.0002749999999998834,0.004987499999999708
0.523,1.0,9.10795,-3.3902,3.0607000000000006,-0.08262812500000002,0.00024999999999988063,0.004924999999999701
0.524,1.0,9.108025,-3.3902,3.0608500000000007,-0.08263281250000003,0.0002249999999998779,0.004862499999999694
0.525,1.0,9.1081,-3.3902,3.061000000000001,-0.08263750000000003,0.00019999999999987514,0.004799999999999688
0.526,1.0,9.108175000000001,-3.3902,3.061150000000001,-0.08264218750000003,0.00017499999999987236,0.004737499999999681
0.527,1.0,9.10825,-3.3902,3.061300000000001,-0.08264687500000004,0.00014999999999986958,0.004674999999999674
0.528,1.0,9.108325,-3.3902,3.0614500000000007,-0.08265156250000003,0.0001249999999998668,0.004612499999999667
0.529,1.0,9.1084,-3.3902,3.0616000000000008,-0.08265625000000003,9.999999999986403e-05,0.00454999999999966
0.53,1.0,9.108475,-3.3902,3.061750000000001,-0.08266093750000003,7.499999999986126e-05,0.004487499999999653
0.531,1.0,9.108550000000001,-3.3902,3.061900000000001,-0.08266562500000003,4.999999999985848e-05,0.004424999999999646
0.532,1.0,9.108625,-3.3902,3.062050000000001,-0.08267031250000004,2.4999999999855704e-05,0.004362499999999639
0.533,1.0,9.1087,-3.3902,3.0622000000000007,-0.08267500000000003,-1.4707202469765868e-16,0.004299999999999632
0.534,1.0,9.108775,-3.3902,3.062350000000001,-0.08267968750000003,-2.5000000000149848e-05,0.004237499999999625
0.535,1.0,9.10885,-3.3902,3.062500000000001,-0.08268437500000003,-5.0000000000152624e-05,0.004174999999999618
0.536,1.0,9.108925000000001,-3.3902,3.062650000000001,-0.08268906250000004,-7.50000000001554e-05,0.004112499999999611
0.537,1.0,9.109,-3.3902,3.062800000000001,-0.08269375000000004,-0.00010000000000015818,0.004049999999999604
0.538,1.0,9.109075,-3.3902,3.062950000000001,-0.08269843750000004,-0.00012500000000016095,0.003987499999999597
0.539,1.0,9.10915,-3.3902,3.063100000000001,-0.08270312500000003,-0.00015000000000016373,0.00392499999999959
0.54,1.0,9.109225,-3.3902,3.063250000000001,-0.08270781250000003,-0.0001750000000001665,0.0038624999999995837
0.541,1.0,9.109300000000001,-3.3902,3.063400000000001,-0.08271250000000004,-0.00020000000000016928,0.0037999999999995767
0.542,1.0,9.109375,-3.3902,3.063550000000001,-0.08271718750000004,-0.00022500000000017206,0.0037374999999995697
0.543,1.0,9.10945,-3.3902,3.063700000000001,-0.08272187500000004,-0.00025000000000017483,0.003674999999999563
0.544,1.0,9.109525,-3.3902,3.063850000000001,-0.08272656250000003,-0.0002750000000001776,0.003612499999999556
0.545,1.0,9.1096,-3.3902,3.064000000000001,-0.08273125000000003,-0.0003000000000001804,0.003549999999999549
0.546,1.0,9.109675000000001,-3.3902,3.064150000000001,-0.08273593750000004,-0.00032500000000018316,0.003487499999999542
0.547,1.0,9.10975,-3.3902,3.064300000000001,-0.08274062500000004,-0.00035000000000018594,0.003424999999999535
0.548,1.0,9.109825,-3.3902,3.0644500000000012,-0.08274531250000004,-0.0003750000000001887,0.003362499999999528
0.549,1.0,9.1099,-3.3902,3.0646000000000013,-0.08275000000000005,-0.0004000000000001915,0.003299999999999521
0.55,1.0,9.109975,-3.3902,3.064750000000001,-0.08275468750000003,-0.00042500000000019427,0.003237499999999514
0.551,1.0,9.110050000000001,-3.3902,3.064900000000001,-0.08275937500000004,-0.00045000000000019704,0.003174999999999507
0.552,1.0,9.110125,-3.3902,3.065050000000001,-0.08276406250000004,-0.0004750000000001998,0.0031124999999995
0.553,1.0,9.1102,-3.3902,3.0652000000000013,-0.08276875000000004,-0.0005000000000002025,0.0030499999999994937
0.554,1.0,9.110275,-3.3902,3.0653500000000014,-0.08277343750000005,-0.0005250000000002054,0.0029874999999994867
0.555,1.0,9.11035,-3.3902,3.065500000000001,-0.08277812500000004,-0.0005500000000002081,0.0029249999999994797
0.556,1.0,9.110425000000001,-3.3902,3.065650000000001,-0.08278281250000004,-0.000575000000000211,0.0028624999999994727
0.557,1.0,9.1105,-3.3902,3.065800000000001,-0.08278750000000004,-0.0006000000000002136,0.0027999999999994657
0.558,1.0,9.110575,-3.3902,3.0659500000000013,-0.08279218750000004,-0.0006250000000002165,0.0027374999999994587
0.559,1.0,9.11065,-3.3902,3.0661000000000014,-0.08279687500000005,-0.0006500000000002192,0.0026749999999994517
0.56,1.0,9.110725,-3.3902,3.0662500000000015,-0.08280156250000005,-0.0006750000000002221,0.002612499999999445
0.561,1.0,9.110800000000001,-3.3902,3.066400000000001,-0.08280625000000004,-0.0007000000000002247,0.002549999999999438
0.562,1.0,9.110875,-3.3902,3.066550000000001,-0.08281093750000004,-0.0007250000000002276,0.002487499999999431
0.5630000000000001,1.0,9.11095,-3.3902,3.0667000000000013,-0.08281562500000005,-0.0007500000000002303,0.002424999999999424
0.5640000000000001,1.0,9.111025,-3.3902,3.0668500000000014,-0.08282031250000005,-0.0007750000000002332,0.002362499999999417
0.5650000000000001,1.0,9.1111,-3.3902,3.0670000000000015,-0.08282500000000005,-0.0008000000000002359,0.00229999999999941
0.5660000000000001,1.0,9.111175,-3.3902,3.0671500000000016,-0.08282968750000005,-0.0008250000000002387,0.002237499999999403
0.5670000000000001,1.0,9.11125,-3.3902,3.0673000000000012,-0.08283437500000004,-0.0008500000000002414,0.002174999999999396
0.5680000000000001,1.0,9.111325,-3.3902,3.0674500000000013,-0.08283906250000005,-0.0008750000000002443,0.0021124999999993896
0.5690000000000001,1.0,9.1114,-3.3902,3.0676000000000014,-0.08284375000000005,-0.000900000000000247,0.0020499999999993826
0.5700000000000001,1.0,9.111475,-3.3902,3.0677500000000015,-0.08284843750000005,-0.0009250000000002498,0.0019874999999993756
0.5710000000000001,1.0,9.11155,-3.3902,3.0679000000000016,-0.08285312500000006,-0.0009500000000002525,0.0019249999999993686
0.5720000000000001,1.0,9.111625,-3.3902,3.0680500000000013,-0.08285781250000004,-0.0009750000000002554,0.0018624999999993616
0.5730000000000001,1.0,9.1117,-3.3902,3.0682000000000014,-0.08286250000000005,-0.001000000000000258,0.0017999999999993546
0.5740000000000001,1.0,9.111775,-3.3902,3.0683500000000015,-0.08286718750000005,-0.001025000000000261,0.0017374999999993476
0.5750000000000001,1.0,9.11185,-3.3902,3.0685000000000016,-0.08287187500000005,-0.0010500000000002636,0.0016749999999993406
0.5760000000000001,1.0,9.111925,-3.3902,3.0686500000000017,-0.08287656250000006,-0.0010750000000002665,0.001612499999999334
0.577,1.0,9.112,-3.3902,3.0688000000000013,-0.08288125000000005,-0.0011000000000002663,0.001549999999999334
0.578,1.0,9.112075,-3.3902,3.0689500000000014,-0.08288593750000005,-0.0011250000000002692,0.001487499999999327
0.579,1.0,9.11215,-3.3902,3.0691000000000015,-0.08289062500000005,-0.001150000000000272,0.00142499999999932
0.58,1.0,9.112225,-3.3902,3.0692500000000016,-0.08289531250000005,-0.0011750000000002748,0.001362499999999313
0.581,1.0,9.1123,-3.390199999999997,3.069399999999999,-0.08289999999999988,-0.001200000000000017,0.001299999999999351
0.582,1.0,9.112373846153847,-3.389904615384612,3.069326153846153,-0.08288923076923065,-0.0012015384615384785,0.0012415384615378103
0.583,1.0,9.112447692307693,-3.3896092307692274,3.069252307692307,-0.08287846153846141,-0.0012030769230769402,0.0011830769230762699
0.584,1.0,9.11252153846154,-3.389313846153843,3.0691784615384607,-0.08286769230769218,-0.0012046153846154018,0.0011246153846147292
0.585,1.0,9.112595384615386,-3.389018461538458,3.0691046153846147,-0.08285692307692295,-0.0012061538461538633,0.0010661538461531886
0.586,1.0,9.112669230769232,-3.388723076923074,3.069030769230768,-0.08284615384615372,-0.001207692307692325,0.0010076923076916481
0.587,1.0,9.112743076923078,-3.388427692307689,3.068956923076922,-0.08283538461538449,-0.0012092307692307866,0.0009492307692301075
0.588,1.0,9.112816923076924,-3.3881323076923042,3.068883076923076,-0.08282461538461526,-0.001210769230769248,0.000890769230768567
0.589,1.0,9.11289076923077,-3.38783692307692,3.06880923076923,-0.08281384615384603,-0.0012123076923077098,0.0008323076923070264
0.59,1.0,9.112964615384616,-3.387541538461535,3.0687353846153838,-0.0828030769230768,-0.0012138461538461712,0.0007738461538454858
0.591,1.0,9.113038461538462,-3.3872461538461507,3.0686615384615377,-0.08279230769230757,-0.001215384615384633,0.0007153846153839453
0.592,1.0,9.113112307692308,-3.386950769230766,3.0685876923076916,-0.08278153846153834,-0.0012169230769230946,0.0006569230769224048
0.593,1.0,9.113186153846154,-3.386655384615381,3.068513846153845,-0.0827707692307691,-0.001218461538461556,0.0005984615384608642
0.594,1.0,9.11326,-3.3863599999999967,3.068439999999999,-0.08275999999999988,-0.0012200000000000177,0.0005399999999993236
0.595,1.0,9.113333846153846,-3.386064615384612,3.068366153846153,-0.08274923076923064,-0.0012215384615384792,0.00048153846153778303
0.596,1.0,9.113407692307693,-3.3857692307692275,3.0682923076923068,-0.08273846153846141,-0.0012230769230769409,0.0004230769230762425
0.597,1.0,9.113481538461539,-3.3854738461538427,3.0682184615384607,-0.08272769230769218,-0.0012246153846154025,0.00036461538461470195
0.598,1.0,9.113555384615385,-3.3851784615384584,3.0681446153846146,-0.08271692307692295,-0.001226153846153864,0.0003061538461531614
0.599,1.0,9.11362923076923,-3.3848830769230736,3.0680707692307685,-0.08270615384615372,-0.0012276923076923257,0.00024769230769162076
0.6,1.0,9.113703076923077,-3.3845876923076887,3.067996923076922,-0.08269538461538449,-0.0012292307692307874,0.00018923076923008032
0.601,1.0,9.113776923076923,-3.3842923076923044,3.067923076923076,-0.08268461538461526,-0.0012307692307692488,0.00013076923076853967
0.602,1.0,9.113850769230769,-3.3839969230769196,3.0678492307692298,-0.08267384615384603,-0.0012323076923077105,7.230769230699924e-05
0.603,1.0,9.113924615384617,-3.383701538461535,3.0677753846153837,-0.0826630769230768,-0.001233846153846172,1.3846153845458592e-05
0.604,1.0,9.113998461538463,-3.3834061538461504,3.0677015384615376,-0.08265230769230757,-0.0012353846153846336,-4.461538461608206e-05
0.605,1.0,9.11407230769231,-3.3831107692307656,3.0676276923076915,-0.08264153846153834,-0.0012369230769230953,-0.00010307692307762249
0.606,1.0,9.114146153846155,-3.3828153846153812,3.0675538461538454,-0.0826307692307691,-0.0012384615384615568,-0.00016153846153916314
0.607,1.0,9.114220000000001,-3.3825199999999964,3.067479999999999,-0.08261999999999987,-0.0012400000000000184,-0.00022000000000070357
0.608,1.0,9.114293846153847,-3.382224615384612,3.067406153846153,-0.08260923076923064,-0.00124153846153848,-0.0002784615384622442
0.609,1.0,9.114367692307694,-3.3819292307692272,3.0673323076923067,-0.08259846153846141,-0.0012430769230769416,-0.0003369230769237849
0.61,1.0,9.11444153846154,-3.3816338461538424,3.0672584615384606,-0.08258769230769218,-0.0012446153846154032,-0.0003953846153853253
0.611,1.0,9.114515384615386,-3.381338461538458,3.0671846153846145,-0.08257692307692295,-0.0012461538461538647,-0.00045384615384686596
0.612,1.0,9.114589230769232,-3.3810430769230733,3.0671107692307684,-0.08256615384615372,-0.0012476923076923264,-0.0005123076923084064
0.613,1.0,9.114663076923078,-3.380747692307689,3.0670369230769223,-0.08255538461538448,-0.001249230769230788,-0.000570769230769947
0.614,1.0,9.114736923076924,-3.380452307692304,3.066963076923076,-0.08254461538461524,-0.0012507692307692495,-0.0006292307692314875
0.615,1.0,9.11481076923077,-3.3801569230769193,3.0668892307692297,-0.08253384615384601,-0.0012523076923077112,-0.0006876923076930283
0.616,1.0,9.114884615384616,-3.379861538461535,3.0668153846153836,-0.08252307692307678,-0.0012538461538461729,-0.0007461538461545686
0.617,1.0,9.114958461538462,-3.37956615384615,3.0667415384615375,-0.08251230769230755,-0.0012553846153846343,-0.0008046153846161092
0.618,1.0,9.115032307692308,-3.3792707692307657,3.0666676923076914,-0.08250153846153832,-0.001256923076923096,-0.0008630769230776499
0.619,1.0,9.115106153846154,-3.378975384615381,3.0665938461538453,-0.08249076923076909,-0.0012584615384615575,-0.0009215384615391905
0.62,1.0,9.11518,-3.378679999999996,3.0665199999999992,-0.08247999999999986,-0.0012600000000000191,-0.0009800000000007307
0.621,1.0,9.115253846153847,-3.3783846153846118,3.0664461538461527,-0.08246923076923063,-0.0012615384615384808,-0.0010384615384622714
0.622,1.0,9.115327692307693,-3.378089230769227,3.0663723076923066,-0.0824584615384614,-0.0012630769230769423,-0.001096923076923812
0.623,1.0,9.115401538461539,-3.3777938461538426,3.0662984615384605,-0.08244769230769217,-0.001264615384615404,-0.0011553846153853527
0.624,1.0,9.115475384615387,-3.377498461538458,3.0662246153846144,-0.08243692307692294,-0.0012661538461538656,-0.0012138461538468933
0.625,1.0,9.115549230769233,-3.3772030769230734,3.0661507692307683,-0.0824261538461537,-0.001267692307692327,-0.0012723076923084335
0.626,1.0,9.115623076923079,-3.3769076923076886,3.0660769230769223,-0.08241538461538447,-0.0012692307692307888,-0.0013307692307699742
0.627,1.0,9.115696923076925,-3.376612307692304,3.066003076923076,-0.08240461538461524,-0.0012707692307692502,-0.0013892307692315148
0.628,1.0,9.115770769230771,-3.3763169230769194,3.0659292307692296,-0.08239384615384601,-0.0012723076923077119,-0.0014476923076930555
0.629,1.0,9.115844615384617,-3.3760215384615346,3.0658553846153835,-0.08238307692307678,-0.0012738461538461736,-0.0015061538461545961
0.63,1.0,9.115918461538463,-3.3757261538461503,3.0657815384615374,-0.08237230769230755,-0.001275384615384635,-0.0015646153846161364
0.631,1.0,9.11599230769231,-3.3754307692307655,3.0657076923076914,-0.08236153846153832,-0.0012769230769230967,-0.001623076923077677
0.632,1.0,9.116066153846155,-3.3751353846153807,3.0656338461538453,-0.08235076923076909,-0.0012784615384615584,-0.0016815384615392177
0.633,1.0,9.116140000000001,-3.3748399999999963,3.065559999999999,-0.08233999999999986,-0.0012800000000000198,-0.0017400000000007583
0.634,1.0,9.116213846153848,-3.3745446153846115,3.0654861538461526,-0.08232923076923063,-0.0012815384615384815,-0.001798461538462299
0.635,1.0,9.116287692307694,-3.374249230769227,3.0654123076923065,-0.0823184615384614,-0.001283076923076943,-0.0018569230769238392
0.636,1.0,9.11636153846154,-3.3739538461538423,3.0653384615384605,-0.08230769230769217,-0.0012846153846154046,-0.0019153846153853798
0.637,1.0,9.116435384615386,-3.3736584615384575,3.0652646153846144,-0.08229692307692293,-0.0012861538461538663,-0.0019738461538469205
0.638,1.0,9.116509230769232,-3.373363076923073,3.0651907692307683,-0.0822861538461537,-0.0012876923076923278,-0.002032307692308461
0.639,1.0,9.116583076923078,-3.3730676923076883,3.065116923076922,-0.08227538461538447,-0.0012892307692307895,-0.0020907692307700018
0.64,1.0,9.116656923076924,-3.372772307692304,3.065043076923076,-0.08226461538461524,-0.0012907692307692511,-0.002149230769231542
0.641,1.0,9.11673076923077,-3.372476923076919,3.0649692307692296,-0.08225384615384601,-0.0012923076923077126,-0.0022076923076930826
0.642,1.0,9.116804615384616,-3.3721815384615343,3.0648953846153835,-0.08224307692307678,-0.0012938461538461743,-0.0022661538461546233
0.643,1.0,9.116878461538462,-3.37188615384615,3.0648215384615374,-0.08223230769230755,-0.0012953846153846357,-0.002324615384616164
0.644,1.0,9.116952307692308,-3.371590769230765,3.0647476923076913,-0.08222153846153832,-0.0012969230769230974,-0.002383076923077704
0.645,1.0,9.117026153846156,-3.371295384615381,3.064673846153845,-0.08221076923076909,-0.001298461538461559,-0.002441538461539245
0.646,1.0,9.117099999999999,-3.370999999999999,3.0646,-0.08220000000000001,-0.0012999999999997994,-0.0024999999999985967
0.647,1.0,9.117028358208955,-3.370928358208954,3.0646,-0.08220149253731344,-0.0012850746268654727,-0.002395522388058309
0.648,1.0,9.11695671641791,-3.3708567164179093,3.0646,-0.08220298507462688,-0.0012701492537311458,-0.002291044776118022
0.649,1.0,9.116885074626865,-3.370785074626865,3.0646,-0.08220447761194032,-0.0012552238805968192,-0.0021865671641777347
0.65,1.0,9.116813432835821,-3.37071343283582,3.0646,-0.08220597014925375,-0.0012402985074624925,-0.0020820895522374477
0.651,1.0,9.116741791044776,-3.370641791044775,3.0646,-0.08220746268656717,-0.0012253731343281656,-0.0019776119402971602
0.652,1.0,9.11667014925373,-3.3705701492537306,3.0646,-0.08220895522388061,-0.001210447761193839,-0.0018731343283568732
0.653,1.0,9.116598507462687,-3.3704985074626856,3.0646,-0.08221044776119404,-0.0011955223880595121,-0.0017686567164165857
0.654,1.0,9.116526865671641,-3.3704268656716407,3.0646,-0.08221194029850748,-0.0011805970149251855,-0.0016641791044762987
0.655,1.0,9.116455223880596,-3.3703552238805963,3.0646,-0.08221343283582092,-0.0011656716417908586,-0.0015597014925360113
0.656,1.0,9.116383582089552,-3.3702835820895514,3.0646,-0.08221492537313434,-0.001150746268656532,-0.001455223880595724
0.657,1.0,9.116311940298507,-3.3702119402985065,3.0646,-0.08221641791044777,-0.001135820895522205,-0.0013507462686554368
0.658,1.0,9.116240298507462,-3.370140298507462,3.0646,-0.08221791044776121,-0.0011208955223878784,-0.0012462686567151495
0.659,1.0,9.116168656716418,-3.370068656716417,3.0646,-0.08221940298507464,-0.0011059701492535517,-0.0011417910447748623
0.66,1.0,9.116097014925373,-3.369997014925372,3.0646,-0.08222089552238808,-0.0010910447761192249,-0.001037313432834575
0.661,1.0,9.116025373134327,-3.3699253731343277,3.0646,-0.0822223880597015,-0.0010761194029848982,-0.0009328358208942878
0.662,1.0,9.115953731343284,-3.369853731343283,3.0646,-0.08222388059701494,-0.0010611940298505713,-0.0008283582089540005
0.663,1.0,9.115882089552239,-3.369782089552238,3.0646,-0.08222537313432837,-0.0010462686567162447,-0.0007238805970137133
0.664,1.0,9.115810447761193,-3.3697104477611934,3.0646,-0.08222686567164181,-0.001031343283581918,-0.0006194029850734261
0.665,1.0,9.115738805970148,-3.3696388059701485,3.0646,-0.08222835820895524,-0.0010164179104475912,-0.0005149253731331388
0.666,1.0,9.115667164179104,-3.3695671641791036,3.0646,-0.08222985074626867,-0.0010014925373132643,-0.0004104477611928518
0.667,1.0,9.115595522388059,-3.3694955223880587,3.0646,-0.0822313432835821,-0.0009865671641789376,-0.00030597014925256433
0.668,1.0,9.115523880597014,-3.3694238805970143,3.0646,-0.08223283582089554,-0.000971641791044611,-0.0002014925373122773
0.669,1.0,9.11545223880597,-3.3693522388059693,3.0646,-0.08223432835820897,-0.0009567164179102841,-9.701492537198984e-05
0.67,1.0,9.115380597014925,-3.3692805970149244,3.0646,-0.08223582089552241,-0.0009417910447759574,7.462686568297187e-06
0.671,1.0,9.11530895522388,-3.36920895522388,3.0646,-0.08223731343283583,-0.0009268656716416307,0.00011194029850858465
0.672,1.0,9.115237313432836,-3.369137313432835,3.0646,-0.08223880597014926,-0.0009119402985073039,0.00021641791044887167
0.673,1.0,9.11516567164179,-3.36906567164179,3.0646,-0.0822402985074627,-0.0008970149253729772,0.00032089552238915913
0.674,1.0,9.115094029850745,-3.3689940298507457,3.0646,-0.08224179104477614,-0.0008820895522386504,0.00042537313432944616
0.675,1.0,9.115022388059701,-3.368922388059701,3.0646,-0.08224328358208956,-0.0008671641791043237,0.0005298507462697336
0.676,1.0,9.114950746268656,-3.368850746268656,3.0646,-0.08224477611940299,-0.0008522388059699969,0.0006343283582100206
0.677,1.0,9.11487910447761,-3.3687791044776114,3.0646,-0.08224626865671643,-0.0008373134328356702,0.0007388059701503081
0.678,1.0,9.114807462686567,-3.3687074626865665,3.0646,-0.08224776119402986,-0.0008223880597013433,0.0008432835820905951
0.679,1.0,9.114735820895522,-3.3686358208955216,3.0646,-0.0822492537313433,-0.0008074626865670167,0.0009477611940308826
0.68,1.0,9.114664179104476,-3.368564179104477,3.0646,-0.08225074626865672,-0.0007925373134326899,0.0010522388059711696
0.681,1.0,9.114592537313433,-3.3684925373134322,3.0646,-0.08225223880597016,-0.0007776119402983631,0.001156716417911457
0.682,1.0,9.114520895522388,-3.3684208955223873,3.0646,-0.08225373134328359,-0.0007626865671640364,0.0012611940298517441
0.683,1.0,9.114449253731342,-3.368349253731343,3.0646,-0.08225522388059703,-0.0007477611940297096,0.0013656716417920316
0.684,1.0,9.114377611940299,-3.368277611940298,3.0646,-0.08225671641791046,-0.0007328358208953829,0.001470149253732319
0.685,1.0,9.114305970149253,-3.368205970149253,3.0646,-0.08225820895522389,-0.0007179104477610562,0.001574626865672606
0.686,1.0,9.114234328358208,-3.368134328358208,3.0646,-0.08225970149253732,-0.0007029850746267294,0.001679104477612893
0.687,1.0,9.114162686567163,-3.3680626865671637,3.0646,-0.08226119402985076,-0.0006880597014924027,0.0017835820895531801
0.6880000000000001,1.0,9.114091044776119,-3.3679910447761188,3.0646,-0.08226268656716419,-0.0006731343283580759,0.001888059701493468
0.6890000000000001,1.0,9.114019402985074,-3.367919402985074,3.0646,-0.08226417910447763,-0.0006582089552237491,0.001992537313433755
0.6900000000000001,1.0,9.113947761194028,-3.3678477611940294,3.0646,-0.08226567164179105,-0.0006432835820894224,0.002097014925374042
0.6910000000000001,1.0,9.113876119402985,-3.3677761194029845,3.0646,-0.08226716417910448,-0.0006283582089550956,0.002201492537314329
0.6920000000000001,1.0,9.11380447761194,-3.3677044776119396,3.0646,-0.08226865671641792,-0.0006134328358207688,0.002305970149254617
0.6930000000000001,1.0,9.113732835820894,-3.367632835820895,3.0646,-0.08227014925373136,-0.0005985074626864422,0.002410447761194904
0.6940000000000001,1.0,9.11366119402985,-3.36756119402985,3.0646,-0.08227164179104479,-0.0005835820895521154,0.002514925373135191
0.6950000000000001,1.0,9.113589552238805,-3.3674895522388053,3.0646,-0.08227313432835821,-0.0005686567164177887,0.002619402985075478
0.6960000000000001,1.0,9.11351791044776,-3.367417910447761,3.0646,-0.08227462686567165,-0.0005537313432834619,0.002723880597015766
0.6970000000000001,1.0,9.113446268656716,-3.367346268656716,3.0646,-0.08227611940298508,-0.0005388059701491351,0.002828358208956053
0.6980000000000001,1.0,9.11337462686567,-3.367274626865671,3.0646,-0.08227761194029852,-0.0005238805970148084,0.00293283582089634
0.6990000000000001,1.0,9.113302985074625,-3.3672029850746266,3.0646,-0.08227910447761196,-0.0005089552238804816,0.003037313432836627
0.7000000000000001,1.0,9.113231343283582,-3.3671313432835817,3.0646,-0.08228059701492538,-0.0004940298507461548,0.003141791044776915
0.7010000000000001,1.0,9.113159701492537,-3.3670597014925367,3.0646,-0.08228208955223881,-0.0004791044776118282,0.003246268656717202
0.7020000000000001,1.0,9.113088059701491,-3.3669880597014923,3.0646,-0.08228358208955225,-0.0004641791044775014,0.003350746268657489
0.7030000000000001,1.0,9.113016417910448,-3.3669164179104474,3.0646,-0.08228507462686568,-0.00044925373134317465,0.003455223880597776
0.704,1.0,9.112944776119402,-3.3668447761194025,3.0646,-0.08228656716417912,-0.0004343283582088495,0.0035597014925380518
0.705,1.0,9.112873134328357,-3.3667731343283576,3.0646,-0.08228805970149254,-0.00041940298507452275,0.0036641791044783397
0.706,1.0,9.112801492537313,-3.366701492537313,3.0646,-0.08228955223880598,-0.0004044776119401961,0.0037686567164186267
0.707,1.0,9.112729850746268,-3.366629850746268,3.0646,-0.08229104477611941,-0.0003895522388058693,0.0038731343283589137
0.708,1.0,9.112658208955223,-3.3665582089552233,3.0646,-0.08229253731343285,-0.00037462686567154256,0.0039776119402992
0.709,1.0,9.112586567164177,-3.366486567164179,3.0646,-0.08229402985074627,-0.0003597014925372158,0.004082089552239489
0.71,1.0,9.112514925373134,-3.366414925373134,3.0646,-0.0822955223880597,-0.00034477611940288903,0.004186567164179776
0.711,1.0,9.112443283582088,-3.366343283582089,3.0646,-0.08229701492537314,-0.00032985074626856227,0.004291044776120063
0.712,1.0,9.112371641791043,-3.3662716417910445,3.0646,-0.08229850746268658,-0.0003149253731342355,0.00439552238806035
0.713,1.0,9.112299999999998,-3.3662000000000005,3.064599999999999,-0.08230000000000003,-0.00029999999999992484,0.004500000000000112
0.714,1.0,9.112153846153845,-3.3662738461538466,3.064452307692307,-0.0823046153846154,-0.0002876923076922321,0.004518461538461652
0.715,1.0,9.11200769230769,-3.3663476923076927,3.0643046153846143,-0.0823092307692308,-0.0002753846153845393,0.004536923076923191
0.716,1.0,9.111861538461538,-3.366421538461539,3.064156923076922,-0.08231384615384618,-0.00026307692307684657,0.00455538461538473
0.717,1.0,9.111715384615383,-3.3664953846153853,3.06400923076923,-0.08231846153846156,-0.0002507692307691538,0.0045738461538462685
0.718,1.0,9.111569230769229,-3.3665692307692314,3.0638615384615377,-0.08232307692307696,-0.00023846153846146108,0.004592307692307808
0.719,1.0,9.111423076923076,-3.3666430769230775,3.063713846153845,-0.08232769230769234,-0.00022615384615376832,0.004610769230769347
0.72,1.0,9.111276923076922,-3.3667169230769236,3.063566153846153,-0.08233230769230772,-0.0002138461538460756,0.004629230769230886
0.721,1.0,9.111130769230767,-3.3667907692307697,3.0634184615384608,-0.0823369230769231,-0.00020153846153838284,0.0046476923076924255
0.722,1.0,9.110984615384615,-3.366864615384616,3.063270769230768,-0.0823415384615385,-0.00018923076923069008,0.004666153846153965
0.723,1.0,9.11083846153846,-3.366938461538462,3.063123076923076,-0.08234615384615387,-0.00017692307692299732,0.004684615384615504
0.724,1.0,9.110692307692306,-3.3670123076923084,3.0629753846153838,-0.08235076923076926,-0.0001646153846153046,0.004703076923077043
0.725,1.0,9.110546153846153,-3.3670861538461545,3.0628276923076916,-0.08235538461538465,-0.00015230769230761184,0.004721538461538582
0.726,1.0,9.110399999999998,-3.3671600000000006,3.062679999999999,-0.08236000000000003,-0.00013999999999991908,0.004740000000000121
0.727,1.0,9.110253846153844,-3.3672338461538467,3.0625323076923068,-0.08236461538461541,-0.00012769230769222635,0.00475846153846166
0.728,1.0,9.110107692307691,-3.367307692307693,3.0623846153846146,-0.0823692307692308,-0.00011538461538453359,0.004776923076923199
0.729,1.0,9.109961538461537,-3.367381538461539,3.062236923076922,-0.08237384615384619,-0.00010307692307684084,0.004795384615384739
0.73,1.0,9.109815384615382,-3.367455384615385,3.06208923076923,-0.08237846153846157,-9.076923076914808e-05,0.004813846153846278
0.731,1.0,9.10966923076923,-3.3675292307692315,3.0619415384615376,-0.08238307692307696,-7.846153846145535e-05,0.004832307692307817
0.732,1.0,9.109523076923075,-3.3676030769230776,3.061793846153845,-0.08238769230769234,-6.615384615376259e-05,0.004850769230769356
0.733,1.0,9.109376923076923,-3.3676769230769237,3.061646153846153,-0.08239230769230772,-5.384615384606986e-05,0.004869230769230895
0.734,1.0,9.109230769230768,-3.3677507692307698,3.0614984615384606,-0.0823969230769231,-4.1538461538377105e-05,0.004887692307692434
0.735,1.0,9.109084615384614,-3.367824615384616,3.0613507692307684,-0.0824015384615385,-2.9230769230684348e-05,0.004906153846153973
0.736,1.0,9.108938461538461,-3.367898461538462,3.061203076923076,-0.08240615384615388,-1.692307692299159e-05,0.004924615384615512
0.737,1.0,9.108792307692307,-3.367972307692308,3.0610553846153836,-0.08241076923076926,-4.615384615298834e-06,0.004943076923077052
0.738,1.0,9.108646153846152,-3.3680461538461546,3.0609076923076914,-0.08241538461538465,7.692307692393923e-06,0.004961538461538591
0.739,1.0,9.1085,-3.3681200000000007,3.060759999999999,-0.08242000000000003,2.0000000000086626e-05,0.00498000000000013
0.74,1.0,9.108353846153845,-3.3681938461538468,3.0606123076923066,-0.08242461538461542,3.230769230777938e-05,0.0049984615384616685
0.741,1.0,9.10820769230769,-3.368267692307693,3.0604646153846145,-0.08242923076923081,4.461538461547214e-05,0.005016923076923208
0.742,1.0,9.108061538461538,-3.368341538461539,3.0603169230769223,-0.08243384615384619,5.69230769231649e-05,0.005035384615384747
0.743,1.0,9.107915384615383,-3.368415384615385,3.0601692307692296,-0.08243846153846157,6.923076923085765e-05,0.005053846153846286
0.744,1.0,9.107769230769229,-3.368489230769231,3.0600215384615375,-0.08244307692307695,8.153846153855041e-05,0.0050723076923078255
0.745,1.0,9.107623076923076,-3.3685630769230777,3.0598738461538453,-0.08244769230769235,9.384615384624317e-05,0.005090769230769365
0.746,1.0,9.107476923076922,-3.3686369230769238,3.0597261538461527,-0.08245230769230773,0.00010615384615393587,0.005109230769230904
0.747,1.0,9.107330769230767,-3.36871076923077,3.0595784615384605,-0.08245692307692311,0.00011846153846162863,0.005127692307692443
0.748,1.0,9.107184615384615,-3.368784615384616,3.0594307692307683,-0.0824615384615385,0.00013076923076932138,0.0051461538461539825
0.749,1.0,9.10703846153846,-3.368858461538462,3.059283076923076,-0.08246615384615388,0.00014307692307701414,0.005164615384615521
0.75,1.0,9.106892307692306,-3.368932307692308,3.0591353846153835,-0.08247076923076926,0.0001553846153847069,0.00518307692307706
0.751,1.0,9.106746153846153,-3.3690061538461546,3.0589876923076913,-0.08247538461538466,0.00016769230769239966,0.005201538461538599
0.752,1.0,9.106599999999998,-3.3690800000000007,3.058839999999999,-0.08248000000000004,0.00018000000000009236,0.005220000000000139
0.753,1.0,9.106453846153846,-3.369153846153847,3.0586923076923065,-0.08248461538461542,0.00019230769230778512,0.005238461538461678
0.754,1.0,9.106307692307691,-3.369227692307693,3.0585446153846143,-0.08248923076923081,0.00020461538461547787,0.005256923076923217
0.755,1.0,9.106161538461537,-3.369301538461539,3.058396923076922,-0.0824938461538462,0.00021692307692317063,0.005275384615384756
0.756,1.0,9.106015384615384,-3.369375384615385,3.05824923076923,-0.08249846153846158,0.00022923076923086339,0.005293846153846295
0.757,1.0,9.10586923076923,-3.369449230769231,3.0581015384615373,-0.08250307692307696,0.00024153846153855614,0.005312307692307834
0.758,1.0,9.105723076923075,-3.3695230769230777,3.057953846153845,-0.08250769230769235,0.0002538461538462489,0.005330769230769373
0.759,1.0,9.105576923076923,-3.369596923076924,3.057806153846153,-0.08251230769230773,0.00026615384615394166,0.005349230769230912
0.76,1.0,9.105430769230768,-3.36967076923077,3.0576584615384603,-0.08251692307692311,0.0002784615384616344,0.005367692307692452
0.761,1.0,9.105284615384614,-3.369744615384616,3.057510769230768,-0.08252153846153851,0.00029076923076932717,0.005386153846153991
0.762,1.0,9.105138461538461,-3.369818461538462,3.057363076923076,-0.08252615384615389,0.0003030769230770198,0.00540461538461553
0.763,1.0,9.104992307692306,-3.369892307692308,3.057215384615384,-0.08253076923076927,0.0003153846153847126,0.0054230769230770685
0.764,1.0,9.104846153846152,-3.3699661538461543,3.057067692307691,-0.08253538461538466,0.00032769230769240533,0.005441538461538608
0.765,1.0,9.1047,-3.370040000000001,3.056919999999999,-0.08254000000000004,0.0003400000000000981,0.005460000000000147
0.766,1.0,9.104553846153845,-3.370113846153847,3.056772307692307,-0.08254461538461542,0.00035230769230779085,0.005478461538461686
0.767,1.0,9.10440769230769,-3.370187692307693,3.056624615384614,-0.0825492307692308,0.0003646153846154836,0.0054969230769232255
0.768,1.0,9.104261538461538,-3.370261538461539,3.056476923076922,-0.0825538461538462,0.00037692307692317636,0.005515384615384765
0.769,1.0,9.104115384615383,-3.370335384615385,3.05632923076923,-0.08255846153846158,0.0003892307692308691,0.005533846153846304
0.77,1.0,9.103969230769229,-3.3704092307692313,3.0561815384615376,-0.08256307692307696,0.0004015384615385619,0.005552307692307842
0.771,1.0,9.103823076923076,-3.3704830769230774,3.056033846153845,-0.08256769230769236,0.00041384615384625463,0.0055707692307693825
0.772,1.0,9.103676923076922,-3.370556923076924,3.055886153846153,-0.08257230769230774,0.0004261538461539474,0.005589230769230921
0.773,1.0,9.103530769230769,-3.37063076923077,3.0557384615384606,-0.08257692307692312,0.00043846153846164015,0.00560769230769246
0.774,1.0,9.103384615384615,-3.370704615384616,3.055590769230768,-0.08258153846153851,0.0004507692307693329,0.005626153846153999
0.775,1.0,9.10323846153846,-3.370778461538462,3.055443076923076,-0.08258615384615389,0.00046307692307702566,0.005644615384615539
0.776,1.0,9.103092307692307,-3.3708523076923083,3.0552953846153836,-0.08259076923076927,0.0004753846153847183,0.005663076923077078
0.777,1.0,9.102946153846153,-3.3709261538461543,3.055147692307691,-0.08259538461538465,0.00048769230769241107,0.005681538461538617
0.778,1.0,9.102800000000002,-3.371,3.0550000000000006,-0.08260000000000015,0.0004999999999998183,0.00570000000000013
0.779,1.0,9.102946153846155,-3.371,3.055073846153847,-0.08261692307692323,0.000478461538461356,0.005715384615384746
0.78,1.0,9.10309230769231,-3.371,3.0551476923076932,-0.08263384615384631,0.00045692307692289365,0.005730769230769362
0.781,1.0,9.103238461538464,-3.371,3.0552215384615393,-0.08265076923076937,0.0004353846153844314,0.005746153846153978
0.782,1.0,9.103384615384616,-3.371,3.0552953846153854,-0.08266769230769246,0.00041384615384596905,0.005761538461538594
0.783,1.0,9.10353076923077,-3.371,3.0553692307692315,-0.08268461538461554,0.00039230769230750673,0.00577692307692321
0.784,1.0,9.103676923076925,-3.371,3.0554430769230776,-0.08270153846153862,0.00037076923076904446,0.005792307692307826
0.785,1.0,9.103823076923078,-3.371,3.0555169230769237,-0.08271846153846169,0.0003492307692305821,0.0058076923076924416
0.786,1.0,9.103969230769232,-3.371,3.05559076923077,-0.08273538461538477,0.0003276923076921198,0.0058230769230770574
0.787,1.0,9.104115384615387,-3.371,3.0556646153846163,-0.08275230769230785,0.0003061538461536575,0.005838461538461673
0.788,1.0,9.10426153846154,-3.371,3.0557384615384624,-0.08276923076923093,0.00028461538461519516,0.005853846153846289
0.789,1.0,9.104407692307694,-3.371,3.0558123076923085,-0.082786153846154,0.0002630769230767329,0.005869230769230905
0.79,1.0,9.104553846153847,-3.371,3.0558861538461546,-0.08280307692307708,0.00024153846153827056,0.005884615384615521
0.791,1.0,9.104700000000001,-3.371,3.0559600000000007,-0.08282000000000016,0.00021999999999980824,0.005900000000000137
0.792,1.0,9.104846153846156,-3.371,3.0560338461538468,-0.08283692307692324,0.00019846153846134591,0.005915384615384753
0.793,1.0,9.104992307692308,-3.371,3.0561076923076933,-0.0828538461538463,0.00017692307692288364,0.005930769230769369
0.794,1.0,9.105138461538463,-3.371,3.0561815384615394,-0.08287076923076939,0.00015538461538442132,0.005946153846153985
0.795,1.0,9.105284615384617,-3.371,3.0562553846153855,-0.08288769230769247,0.000133846153845959,0.005961538461538601
0.796,1.0,9.10543076923077,-3.371,3.0563292307692316,-0.08290461538461555,0.00011230769230749672,0.005976923076923217
0.797,1.0,9.105576923076924,-3.371,3.0564030769230777,-0.08292153846153862,9.07692307690344e-05,0.005992307692307833
0.798,1.0,9.105723076923079,-3.371,3.0564769230769238,-0.0829384615384617,6.923076923057208e-05,0.006007692307692449
0.799,1.0,9.105869230769231,-3.371,3.05655076923077,-0.08295538461538478,4.769230769210975e-05,0.006023076923077065
0.8,1.0,9.106015384615386,-3.371,3.0566246153846164,-0.08297230769230785,2.615384615364748e-05,0.006038461538461681
0.801,1.0,9.10616153846154,-3.371,3.0566984615384625,-0.08298923076923093,4.615384615185209e-06,0.006053846153846297
0.802,1.0,9.106307692307693,-3.371,3.0567723076923086,-0.08300615384615401,-1.692307692327717e-05,0.006069230769230913
0.803,1.0,9.106453846153848,-3.371,3.0568461538461547,-0.08302307692307709,-3.846153846173944e-05,0.0060846153846155285
0.804,1.0,9.106600000000002,-3.371,3.0569200000000007,-0.08304000000000016,-6.000000000020182e-05,0.006100000000000144
0.805,1.0,9.106746153846155,-3.371,3.056993846153847,-0.08305692307692324,-8.153846153866409e-05,0.00611538461538476
0.806,1.0,9.10689230769231,-3.371,3.057067692307693,-0.08307384615384632,-0.00010307692307712636,0.006130769230769376
0.807,1.0,9.107038461538464,-3.371,3.0571415384615395,-0.0830907692307694,-0.00012461538461558874,0.006146153846153992
0.808,1.0,9.107184615384616,-3.371,3.0572153846153856,-0.08310769230769247,-0.000146153846154051,0.006161538461538608
0.809,1.0,9.10733076923077,-3.371,3.0572892307692316,-0.08312461538461555,-0.00016769230769251328,0.006176923076923224
0.81,1.0,9.107476923076923,-3.371,3.0573630769230777,-0.08314153846153863,-0.00018923076923097566,0.00619230769230784
0.811,1.0,9.107623076923078,-3.371,3.057436923076924,-0.08315846153846171,-0.00021076923076943793,0.006207692307692456
0.812,1.0,9.107769230769232,-3.371,3.05751076923077,-0.08317538461538478,-0.0002323076923079002,0.0062230769230770715
0.8130000000000001,1.0,9.107915384615385,-3.371,3.057584615384616,-0.08319230769230786,-0.0002538461538463626,0.006238461538461687
0.8140000000000001,1.0,9.10806153846154,-3.371,3.0576584615384625,-0.08320923076923094,-0.00027538461538482485,0.006253846153846304
0.8150000000000001,1.0,9.108207692307694,-3.371,3.0577323076923086,-0.08322615384615402,-0.00029692307692328723,0.00626923076923092
0.8160000000000001,1.0,9.108353846153847,-3.371,3.0578061538461547,-0.08324307692307709,-0.0003184615384617495,0.006284615384615536
0.8170000000000001,1.0,9.108500000000001,-3.371,3.057880000000001,-0.08326000000000017,-0.00034000000000021177,0.006300000000000152
0.8180000000000001,1.0,9.108646153846156,-3.371,3.057953846153847,-0.08327692307692325,-0.00036153846153867415,0.006315384615384768
0.8190000000000001,1.0,9.108792307692308,-3.371,3.058027692307693,-0.08329384615384632,-0.0003830769230771364,0.006330769230769384
0.8200000000000001,1.0,9.108938461538463,-3.371,3.058101538461539,-0.0833107692307694,-0.0004046153846155987,0.0063461538461539995
0.8210000000000001,1.0,9.109084615384617,-3.371,3.0581753846153856,-0.08332769230769248,-0.00042615384615406107,0.006361538461538615
0.8220000000000001,1.0,9.10923076923077,-3.371,3.0582492307692317,-0.08334461538461556,-0.00044769230769252334,0.006376923076923231
0.8230000000000001,1.0,9.109376923076924,-3.371,3.058323076923078,-0.08336153846153863,-0.0004692307692309856,0.006392307692307847
0.8240000000000001,1.0,9.109523076923079,-3.371,3.058396923076924,-0.0833784615384617,-0.0004907692307694479,0.006407692307692463
0.8250000000000001,1.0,9.109669230769232,-3.371,3.05847076923077,-0.08339538461538479,-0.0005123076923079103,0.006423076923077079
0.8260000000000001,1.0,9.109815384615386,-3.371,3.058544615384616,-0.08341230769230787,-0.0005338461538463726,0.006438461538461695
0.8270000000000001,1.0,9.10996153846154,-3.371,3.058618461538462,-0.08342923076923094,-0.0005553846153848348,0.006453846153846311
0.8280000000000001,1.0,9.110107692307693,-3.371,3.0586923076923087,-0.08344615384615402,-0.0005769230769232972,0.006469230769230927
0.8290000000000001,1.0,9.110253846153848,-3.371,3.058766153846155,-0.0834630769230771,-0.0005984615384617596,0.0064846153846155425
0.8300000000000001,1.0,9.1104,-3.371,3.058840000000001,-0.08348000000000018,-0.0006200000000002217,0.006500000000000158
0.8310000000000001,1.0,9.110546153846155,-3.371,3.058913846153847,-0.08349692307692325,-0.0006415384615386841,0.006515384615384774
0.8320000000000001,1.0,9.11069230769231,-3.371,3.058987692307693,-0.08351384615384633,-0.0006630769230771465,0.00653076923076939
0.833,1.0,9.110838461538462,-3.371,3.059061538461539,-0.08353076923076941,-0.0006846153846156063,0.006546153846154005
0.834,1.0,9.110984615384616,-3.371,3.0591353846153853,-0.08354769230769248,-0.0007061538461540686,0.006561538461538621
0.835,1.0,9.11113076923077,-3.371,3.059209230769232,-0.08356461538461556,-0.000727692307692531,0.006576923076923237
0.836,1.0,9.111276923076923,-3.371,3.059283076923078,-0.08358153846153864,-0.0007492307692309934,0.006592307692307853
0.837,1.0,9.111423076923078,-3.371,3.059356923076924,-0.08359846153846172,-0.0007707692307694556,0.006607692307692469
0.838,1.0,9.111569230769232,-3.371,3.05943076923077,-0.08361538461538479,-0.0007923076923079179,0.006623076923077085
0.839,1.0,9.111715384615385,-3.371,3.059504615384616,-0.08363230769230787,-0.0008138461538463803,0.006638461538461701
0.84,1.0,9.11186153846154,-3.371,3.0595784615384622,-0.08364923076923095,-0.0008353846153848425,0.0066538461538463165
0.841,1.0,9.112007692307694,-3.371,3.0596523076923083,-0.08366615384615403,-0.0008569230769233049,0.006669230769230932
0.842,1.0,9.112153846153847,-3.371,3.059726153846155,-0.0836830769230771,-0.0008784615384617672,0.006684615384615548
0.843,1.0,9.112299999999998,-3.371000000000004,3.0597999999999983,-0.0837,-0.0009000000000000492,0.006699999999999967
0.844,1.0,9.112153846153843,-3.371369230769235,3.059652307692306,-0.0837,-0.0009046153846154339,0.006696923076923044
0.845,1.0,9.11200769230769,-3.3717384615384653,3.059504615384614,-0.0837,-0.0009092307692308187,0.006693846153846121
0.846,1.0,9.111861538461536,-3.3721076923076962,3.0593569230769218,-0.0837,-0.0009138461538462035,0.006690769230769198
0.847,1.0,9.111715384615383,-3.372476923076927,3.059209230769229,-0.0837,-0.0009184615384615883,0.006687692307692275
0.848,1.0,9.111569230769229,-3.372846153846158,3.059061538461537,-0.0837,-0.000923076923076973,0.006684615384615351
0.849,1.0,9.111423076923074,-3.3732153846153885,3.0589138461538448,-0.0837,-0.0009276923076923578,0.006681538461538428
0.85,1.0,9.111276923076922,-3.3735846153846194,3.058766153846152,-0.0837,-0.0009323076923077427,0.006678461538461505
0.851,1.0,9.111130769230767,-3.3739538461538503,3.05861846153846,-0.0837,-0.0009369230769231274,0.006675384615384582
0.852,1.0,9.110984615384613,-3.3743230769230808,3.0584707692307678,-0.0837,-0.0009415384615385122,0.006672307692307659
0.853,1.0,9.11083846153846,-3.3746923076923117,3.058323076923075,-0.0837,-0.000946153846153897,0.0066692307692307355
0.854,1.0,9.110692307692306,-3.3750615384615426,3.058175384615383,-0.0837,-0.0009507692307692817,0.006666153846153812
0.855,1.0,9.110546153846151,-3.3754307692307735,3.058027692307691,-0.0837,-0.0009553846153846665,0.006663076923076889
0.856,1.0,9.110399999999998,-3.375800000000004,3.0578799999999986,-0.0837,-0.0009600000000000513,0.006659999999999966
0.857,1.0,9.110253846153844,-3.376169230769235,3.057732307692306,-0.0837,-0.0009646153846154361,0.006656923076923043
0.858,1.0,9.11010769230769,-3.3765384615384657,3.057584615384614,-0.0837,-0.0009692307692308208,0.00665384615384612
0.859,1.0,9.109961538461537,-3.3769076923076966,3.0574369230769216,-0.0837,-0.0009738461538462056,0.006650769230769196
0.86,1.0,9.109815384615382,-3.377276923076927,3.057289230769229,-0.0837,-0.0009784615384615903,0.006647692307692273
0.861,1.0,9.109669230769228,-3.377646153846158,3.057141538461537,-0.0837,-0.0009830769230769751,0.0066446153846153495
0.862,1.0,9.109523076923075,-3.378015384615389,3.0569938461538446,-0.0837,-0.00098769230769236,0.006641538461538427
0.863,1.0,9.10937692307692,-3.3783846153846198,3.056846153846152,-0.0837,-0.0009923076923077448,0.006638461538461504
0.864,1.0,9.109230769230766,-3.37875384615385,3.05669846153846,-0.0837,-0.0009969230769231296,0.00663538461538458
0.865,1.0,9.109084615384614,-3.379123076923081,3.0565507692307676,-0.0837,-0.0010015384615385144,0.006632307692307657
0.866,1.0,9.10893846153846,-3.379492307692312,3.056403076923075,-0.0837,-0.0010061538461538992,0.006629230769230734
0.867,1.0,9.108792307692307,-3.379861538461543,3.056255384615383,-0.0837,-0.0010107692307692838,0.006626153846153811
0.868,1.0,9.108646153846152,-3.3802307692307734,3.0561076923076906,-0.0837,-0.0010153846153846686,0.006623076923076888
0.869,1.0,9.108499999999998,-3.3806000000000043,3.0559599999999985,-0.0837,-0.0010200000000000534,0.0066199999999999645
0.87,1.0,9.108353846153845,-3.380969230769235,3.055812307692306,-0.0837,-0.0010246153846154382,0.006616923076923041
0.871,1.0,9.10820769230769,-3.381338461538466,3.0556646153846136,-0.0837,-0.001029230769230823,0.006613846153846118
0.872,1.0,9.108061538461536,-3.3817076923076965,3.0555169230769215,-0.0837,-0.0010338461538462078,0.006610769230769194
0.873,1.0,9.107915384615383,-3.3820769230769274,3.055369230769229,-0.0837,-0.0010384615384615927,0.006607692307692272
0.874,1.0,9.107769230769229,-3.3824461538461583,3.0552215384615367,-0.0837,-0.0010430769230769773,0.0066046153846153486
0.875,1.0,9.107623076923074,-3.3828153846153888,3.0550738461538445,-0.0837,-0.001047692307692362,0.006601538461538425
0.876,1.0,9.107476923076922,-3.3831846153846197,3.054926153846152,-0.0837,-0.0010523076923077469,0.006598461538461502
0.877,1.0,9.107330769230767,-3.3835538461538506,3.0547784615384597,-0.0837,-0.0010569230769231317,0.0065953846153845785
0.878,1.0,9.107184615384613,-3.3839230769230815,3.0546307692307675,-0.0837,-0.0010615384615385165,0.006592307692307656
0.879,1.0,9.10703846153846,-3.384292307692312,3.0544830769230753,-0.0837,-0.0010661538461539013,0.006589230769230733
0.88,1.0,9.106892307692306,-3.384661538461543,3.0543353846153827,-0.0837,-0.0010707692307692861,0.006586153846153809
0.881,1.0,9.106746153846151,-3.3850307692307737,3.0541876923076905,-0.0837,-0.0010753846153846707,0.006583076923076886
0.882,1.0,9.106599999999998,-3.3854000000000046,3.0540399999999983,-0.0837,-0.0010800000000000555,0.006579999999999963
0.883,1.0,9.106453846153844,-3.385769230769235,3.0538923076923057,-0.0837,-0.0010846153846154403,0.006576923076923039
0.884,1.0,9.106307692307691,-3.386138461538466,3.0537446153846135,-0.0837,-0.0010892307692308251,0.006573846153846117
0.885,1.0,9.106161538461537,-3.386507692307697,3.0535969230769213,-0.0837,-0.00109384615384621,0.006570769230769193
0.886,1.0,9.106015384615382,-3.386876923076928,3.0534492307692287,-0.0837,-0.0010984615384615948,0.00656769230769227
0.887,1.0,9.10586923076923,-3.3872461538461582,3.0533015384615365,-0.0837,-0.0011030769230769796,0.006564615384615347
0.888,1.0,9.105723076923075,-3.387615384615389,3.0531538461538443,-0.0837,-0.0011076923076923642,0.006561538461538423
0.889,1.0,9.10557692307692,-3.38798461538462,3.0530061538461517,-0.0837,-0.001112307692307749,0.006558461538461501
0.89,1.0,9.105430769230768,-3.388353846153851,3.0528584615384595,-0.0837,-0.0011169230769231338,0.0065553846153845775
0.891,1.0,9.105284615384614,-3.3887230769230814,3.0527107692307673,-0.0837,-0.0011215384615385186,0.006552307692307654
0.892,1.0,9.10513846153846,-3.3890923076923123,3.052563076923075,-0.0837,-0.0011261538461539034,0.006549230769230731
0.893,1.0,9.104992307692306,-3.389461538461543,3.0524153846153825,-0.0837,-0.0011307692307692882,0.0065461538461538075
0.894,1.0,9.104846153846152,-3.3898307692307736,3.0522676923076903,-0.0837,-0.001135384615384673,0.006543076923076884
0.895,1.0,9.104699999999998,-3.3902000000000045,3.052119999999998,-0.0837,-0.0011400000000000576,0.006539999999999962
0.896,1.0,9.104553846153845,-3.3905692307692354,3.0519723076923055,-0.0837,-0.0011446153846154424,0.006536923076923038
0.897,1.0,9.10440769230769,-3.3909384615384663,3.0518246153846134,-0.0837,-0.0011492307692308273,0.006533846153846115
0.898,1.0,9.104261538461536,-3.391307692307697,3.051676923076921,-0.0837,-0.001153846153846212,0.006530769230769192
0.899,1.0,9.104115384615383,-3.3916769230769277,3.0515292307692286,-0.0837,-0.0011584615384615969,0.006527692307692268
0.9,1.0,9.103969230769229,-3.3920461538461586,3.0513815384615364,-0.0837,-0.0011630769230769815,0.006524615384615345
0.901,1.0,9.103823076923074,-3.3924153846153895,3.051233846153844,-0.0837,-0.0011676923076923665,0.006521538461538422
0.902,1.0,9.103676923076922,-3.39278461538462,3.051086153846152,-0.0837,-0.001172307692307751,0.006518461538461499
0.903,1.0,9.103530769230767,-3.393153846153851,3.0509384615384594,-0.0837,-0.001176923076923136,0.006515384615384576
0.904,1.0,9.103384615384615,-3.3935230769230817,3.050790769230767,-0.0837,-0.0011815384615385207,0.006512307692307652
0.905,1.0,9.10323846153846,-3.3938923076923126,3.050643076923075,-0.0837,-0.0011861538461539055,0.006509230769230729
0.906,1.0,9.103092307692306,-3.394261538461543,3.0504953846153824,-0.0837,-0.0011907692307692903,0.0065061538461538065
0.907,1.0,9.102946153846153,-3.394630769230774,3.05034769230769,-0.0837,-0.001195384615384675,0.006503076923076883
0.908,1.0,9.102800000000002,-3.394999999999999,3.0502000000000016,-0.0837,-0.0012000000000001797,0.006499999999998761
0.909,1.0,9.102946153846156,-3.394926153846153,3.050347692307694,-0.0837,-0.001213846153846334,0.0064046153846141415
0.91,1.0,9.10309230769231,-3.394852307692307,3.0504953846153864,-0.0837,-0.0012276923076924885,0.006309230769229523
0.911,1.0,9.103238461538464,-3.3947784615384604,3.0506430769230786,-0.0837,-0.0012415384615386427,0.006213846153844904
0.912,1.0,9.103384615384618,-3.3947046153846143,3.050790769230771,-0.0837,-0.0012553846153847972,0.006118461538460285
0.913,1.0,9.10353076923077,-3.3946307692307682,3.0509384615384634,-0.0837,-0.0012692307692309514,0.006023076923075667
0.914,1.0,9.103676923076925,-3.394556923076922,3.0510861538461556,-0.0837,-0.0012830769230771058,0.005927692307691048
0.915,1.0,9.10382307692308,-3.394483076923076,3.0512338461538477,-0.0837,-0.0012969230769232603,0.005832307692306429
0.916,1.0,9.103969230769232,-3.39440923076923,3.0513815384615404,-0.0837,-0.0013107692307694145,0.005736923076921811
0.917,1.0,9.104115384615387,-3.394335384615384,3.0515292307692325,-0.0837,-0.001324615384615569,0.005641538461537192
0.918,1.0,9.104261538461541,-3.3942615384615373,3.0516769230769247,-0.0837,-0.0013384615384617231,0.005546153846152572
0.919,1.0,9.104407692307694,-3.3941876923076912,3.0518246153846174,-0.0837,-0.0013523076923078776,0.005450769230767954
0.92,1.0,9.104553846153848,-3.394113846153845,3.0519723076923095,-0.0837,-0.001366153846154032,0.005355384615383335
0.921,1.0,9.104700000000003,-3.394039999999999,3.0521200000000017,-0.0837,-0.0013800000000001862,0.005259999999998716
0.922,1.0,9.104846153846156,-3.393966153846153,3.0522676923076943,-0.0837,-0.0013938461538463406,0.0051646153846140975
0.923,1.0,9.10499230769231,-3.393892307692307,3.0524153846153865,-0.0837,-0.0014076923076924948,0.005069230769229479
0.924,1.0,9.105138461538463,-3.393818461538461,3.0525630769230787,-0.0837,-0.0014215384615386493,0.00497384615384486
0.925,1.0,9.105284615384617,-3.3937446153846142,3.052710769230771,-0.0837,-0.0014353846153848035,0.0048784615384602405
0.926,1.0,9.105430769230772,-3.393670769230768,3.0528584615384635,-0.0837,-0.001449230769230958,0.004783076923075622
0.927,1.0,9.105576923076924,-3.393596923076922,3.0530061538461557,-0.0837,-0.0014630769230771124,0.004687692307691003
0.928,1.0,9.105723076923079,-3.393523076923076,3.053153846153848,-0.0837,-0.0014769230769232666,0.004592307692306384
0.929,1.0,9.105869230769233,-3.39344923076923,3.0533015384615405,-0.0837,-0.001490769230769421,0.004496923076921766
0.93,1.0,9.106015384615386,-3.393375384615384,3.0534492307692327,-0.0837,-0.0015046153846155752,0.004401538461537147
0.931,1.0,9.10616153846154,-3.3933015384615377,3.053596923076925,-0.0837,-0.0015184615384617297,0.004306153846152528
0.932,1.0,9.106307692307695,-3.393227692307691,3.0537446153846175,-0.0837,-0.0015323076923078839,0.00421076923076791
0.933,1.0,9.106453846153848,-3.393153846153845,3.0538923076923097,-0.0837,-0.0015461538461540383,0.004115384615383291
0.934,1.0,9.106600000000002,-3.393079999999999,3.054040000000002,-0.0837,-0.0015600000000001927,0.004019999999998672
0.935,1.0,9.106746153846156,-3.393006153846153,3.0541876923076945,-0.0837,-0.001573846153846347,0.0039246153846140535
0.936,1.0,9.10689230769231,-3.392932307692307,3.0543353846153867,-0.0837,-0.0015876923076925014,0.0038292307692294344
0.937,1.0,9.107038461538464,-3.3928584615384607,3.054483076923079,-0.0837,-0.0016015384615386558,0.0037338461538448152
0.9380000000000001,1.0,9.107184615384618,-3.3927846153846146,3.054630769230771,-0.0837,-0.00161538461538481,0.0036384615384601965
0.9390000000000001,1.0,9.10733076923077,-3.392710769230768,3.0547784615384637,-0.0837,-0.0016292307692309643,0.003543076923075578
0.9400000000000001,1.0,9.107476923076925,-3.392636923076922,3.054926153846156,-0.0837,-0.0016430769230771187,0.003447692307690959
0.9410000000000001,1.0,9.107623076923078,-3.392563076923076,3.055073846153848,-0.0837,-0.0016569230769232731,0.0033523076923063404
0.9420000000000001,1.0,9.107769230769232,-3.39248923076923,3.0552215384615407,-0.0837,-0.0016707692307694273,0.0032569230769217213
0.9430000000000001,1.0,9.107915384615387,-3.3924153846153837,3.055369230769233,-0.0837,-0.0016846153846155818,0.0031615384615371026
0.9440000000000001,1.0,9.10806153846154,-3.3923415384615376,3.055516923076925,-0.0837,-0.0016984615384617362,0.003066153846152484
0.9450000000000001,1.0,9.108207692307694,-3.392267692307691,3.0556646153846176,-0.0837,-0.0017123076923078904,0.002970769230767865
0.9460000000000001,1.0,9.108353846153848,-3.392193846153845,3.05581230769231,-0.0837,-0.0017261538461540446,0.002875384615383246
0.9470000000000001,1.0,9.108500000000001,-3.392119999999999,3.055960000000002,-0.0837,-0.001740000000000199,0.0027799999999986273
0.9480000000000001,1.0,9.108646153846156,-3.392046153846153,3.056107692307694,-0.0837,-0.0017538461538463535,0.0026846153846140086
0.9490000000000001,1.0,9.10879230769231,-3.3919723076923067,3.056255384615387,-0.0837,-0.0017676923076925077,0.00258923076922939
0.9500000000000001,1.0,9.108938461538463,-3.3918984615384606,3.056403076923079,-0.0837,-0.0017815384615386622,0.002493846153844771
0.9510000000000001,1.0,9.109084615384617,-3.3918246153846145,3.056550769230771,-0.0837,-0.0017953846153848166,0.0023984615384601525
0.9520000000000001,1.0,9.109230769230772,-3.391750769230768,3.056698461538464,-0.0837,-0.0018092307692309708,0.002303076923075534
0.9530000000000001,1.0,9.109376923076924,-3.391676923076922,3.056846153846156,-0.0837,-0.0018230769230771252,0.0022076923076909142
0.9540000000000001,1.0,9.109523076923079,-3.391603076923076,3.056993846153848,-0.0837,-0.0018369230769232797,0.0021123076923062955
0.9550000000000001,1.0,9.109669230769233,-3.3915292307692297,3.057141538461541,-0.0837,-0.0018507692307694339,0.002016923076921677
0.9560000000000001,1.0,9.109815384615386,-3.3914553846153837,3.057289230769233,-0.0837,-0.001864615384615588,0.0019215384615370581
0.9570000000000001,1.0,9.10996153846154,-3.3913815384615376,3.057436923076925,-0.0837,-0.0018784615384617425,0.0018261538461524394
0.9580000000000001,1.0,9.110107692307695,-3.3913076923076915,3.057584615384618,-0.0837,-0.001892307692307897,0.0017307692307678207
0.9590000000000001,1.0,9.110253846153848,-3.391233846153845,3.05773230769231,-0.0837,-0.0019061538461540512,0.001635384615383202
0.96,1.0,9.110400000000002,-3.391159999999999,3.057880000000002,-0.0837,-0.001920000000000204,0.0015399999999985937
0.961,1.0,9.110546153846155,-3.3910861538461528,3.0580276923076943,-0.0837,-0.0019338461538463583,0.001444615384613975
0.962,1.0,9.11069230769231,-3.3910123076923067,3.058175384615387,-0.0837,-0.0019476923076925127,0.0013492307692293563
0.963,1.0,9.110838461538464,-3.3909384615384606,3.058323076923079,-0.0837,-0.001961538461538667,0.0012538461538447367
0.964,1.0,9.110984615384616,-3.3908646153846145,3.0584707692307713,-0.0837,-0.0019753846153848214,0.001158461538460118
0.965,1.0,9.11113076923077,-3.3907907692307684,3.058618461538464,-0.0837,-0.0019892307692309756,0.0010630769230754993
0.966,1.0,9.111276923076925,-3.390716923076922,3.058766153846156,-0.0837,-0.0020030769230771303,0.0009676923076908806
0.967,1.0,9.111423076923078,-3.3906430769230758,3.0589138461538483,-0.0837,-0.0020169230769232845,0.0008723076923062619
0.968,1.0,9.111569230769232,-3.3905692307692297,3.059061538461541,-0.0837,-0.0020307692307694387,0.0007769230769216432
0.969,1.0,9.111715384615387,-3.3904953846153836,3.059209230769233,-0.0837,-0.0020446153846155933,0.0006815384615370245
0.97,1.0,9.11186153846154,-3.3904215384615375,3.0593569230769253,-0.0837,-0.0020584615384617476,0.0005861538461524058
0.971,1.0,9.112007692307694,-3.3903476923076914,3.0595046153846175,-0.0837,-0.0020723076923079018,0.0004907692307677871
0.972,1.0,9.112153846153848,-3.3902738461538453,3.05965230769231,-0.0837,-0.002086153846154056,0.00039538461538316753
0.973,1.0,9.1123,-3.390199999999997,3.059799999999998,-0.08370000000000027,-0.0021000000000005992,0.00029999999999972345
0.974,1.0,9.1123,-3.389981818181815,3.0596545454545434,-0.0837181818181821,-0.002139393939394537,0.0002818181818179059
0.975,1.0,9.1123,-3.389763636363633,3.059509090909089,-0.08373636363636391,-0.002178787878788475,0.0002636363636360884
0.976,1.0,9.1123,-3.3895454545454515,3.059363636363634,-0.08375454545454572,-0.002218181818182413,0.00024545454545427093
0.977,1.0,9.1123,-3.3893272727272694,3.0592181818181796,-0.08377272727272754,-0.002257575757576351,0.0002272727272724534
0.978,1.0,9.1123,-3.3891090909090877,3.059072727272725,-0.08379090909090936,-0.0022969696969702886,0.00020909090909063588
0.979,1.0,9.1123,-3.388890909090906,3.0589272727272707,-0.08380909090909118,-0.0023363636363642267,0.00019090909090881838
0.98,1.0,9.1123,-3.388672727272724,3.0587818181818163,-0.083827272727273,-0.0023757575757581647,0.00017272727272700088
0.981,1.0,9.1123,-3.3884545454545423,3.0586363636363614,-0.08384545454545482,-0.0024151515151521028,0.00015454545454518339
0.982,1.0,9.1123,-3.3882363636363606,3.058490909090907,-0.08386363636363663,-0.0024545454545460404,0.00013636363636336586
0.983,1.0,9.1123,-3.3880181818181785,3.0583454545454525,-0.08388181818181845,-0.0024939393939399784,0.00011818181818154836
0.984,1.0,9.1123,-3.387799999999997,3.058199999999998,-0.08390000000000027,-0.0025333333333339165,9.999999999973087e-05
0.985,1.0,9.1123,-3.387581818181815,3.058054545454543,-0.08391818181818209,-0.0025727272727278545,8.181818181791334e-05
0.986,1.0,9.1123,-3.387363636363633,3.0579090909090887,-0.0839363636363639,-0.002612121212121792,6.363636363609584e-05
0.987,1.0,9.1123,-3.3871454545454514,3.0577636363636342,-0.08395454545454573,-0.00265151515151573,4.545454545427832e-05
0.988,1.0,9.1123,-3.3869272727272697,3.05761818181818,-0.08397272727272753,-0.0026909090909096683,2.7272727272460847e-05
0.989,1.0,9.1123,-3.3867090909090876,3.0574727272727253,-0.08399090909090935,-0.002730303030303606,9.090909090643323e-06
0.99,1.0,9.1123,-3.386490909090906,3.0573272727272705,-0.08400909090909117,-0.002769696969697544,-9.090909091174202e-06
0.991,1.0,9.1123,-3.386272727272724,3.057181818181816,-0.08402727272727299,-0.002809090909091482,-2.7272727272991673e-05
0.992,1.0,9.1123,-3.3860545454545425,3.0570363636363616,-0.08404545454545481,-0.00284848484848542,-4.54545454548092e-05
0.993,1.0,9.1123,-3.3858363636363604,3.056890909090907,-0.08406363636363663,-0.002887878787879358,-6.363636363662672e-05
0.994,1.0,9.1123,-3.3856181818181788,3.056745454545452,-0.08408181818181844,-0.0029272727272732957,-8.181818181844419e-05
0.995,1.0,9.1123,-3.385399999999997,3.0565999999999978,-0.08410000000000026,-0.0029666666666672338,-0.00010000000000026172
