Time,Sensor ID,Accel X (m/s^2),Accel Y (m/s^2),Accel Z (m/s^2),Gyro X (rad/s),Gyro Y (rad/s),Gyro Z (rad/s)
0.0,1.0,8.1403,-3.5243,-3.6152,-0.039,-0.0213,0.0047
0.001,1.0,8.140421319796955,-3.523983756345178,-3.61517614213198,-0.03901776649746193,-0.021308629441624365,0.004690355329949239
0.002,1.0,8.140542639593908,-3.5236675126903556,-3.6151522842639596,-0.039035532994923856,-0.02131725888324873,0.004680710659898477
0.003,1.0,8.140663959390864,-3.5233512690355333,-3.6151284263959393,-0.039053299492385785,-0.021325888324873095,0.004671065989847716
0.004,1.0,8.140785279187817,-3.523035025380711,-3.615104568527919,-0.03907106598984771,-0.02133451776649746,0.004661421319796955
0.005,1.0,8.140906598984772,-3.5227187817258887,-3.6150807106598988,-0.03908883248730964,-0.021343147208121825,0.004651776649746194
0.006,1.0,8.141027918781726,-3.5224025380710664,-3.6150568527918785,-0.03910659898477157,-0.02135177664974619,0.004642131979695432
0.007,1.0,8.14114923857868,-3.522086294416244,-3.615032994923858,-0.0391243654822335,-0.021360406091370555,0.004632487309644671
0.008,1.0,8.141270558375634,-3.5217700507614214,-3.615009137055838,-0.03914213197969543,-0.021369035532994924,0.00462284263959391
0.009000000000000001,1.0,8.14139187817259,-3.521453807106599,-3.6149852791878176,-0.03915989847715736,-0.02137766497461929,0.004613197969543148
0.01,1.0,8.141513197969543,-3.5211375634517768,-3.614961421319797,-0.03917766497461929,-0.021386294416243654,0.004603553299492387
0.011,1.0,8.141634517766498,-3.5208213197969545,-3.6149375634517766,-0.03919543147208122,-0.02139492385786802,0.004593908629441626
0.012,1.0,8.141755837563451,-3.520505076142132,-3.6149137055837564,-0.039213197969543145,-0.021403553299492385,0.004584263959390864
0.013000000000000001,1.0,8.141877157360407,-3.52018883248731,-3.614889847715736,-0.039230964467005074,-0.02141218274111675,0.004574619289340103
0.014,1.0,8.14199847715736,-3.5198725888324875,-3.614865989847716,-0.039248730964467,-0.021420812182741115,0.004564974619289342
0.015,1.0,8.142119796954315,-3.5195563451776652,-3.6148421319796955,-0.03926649746192893,-0.02142944162436548,0.00455532994923858
0.016,1.0,8.142241116751268,-3.519240101522843,-3.6148182741116752,-0.03928426395939086,-0.021438071065989845,0.004545685279187819
0.017,1.0,8.142362436548224,-3.5189238578680206,-3.614794416243655,-0.039302030456852786,-0.02144670050761421,0.004536040609137058
0.018000000000000002,1.0,8.142483756345177,-3.5186076142131983,-3.6147705583756347,-0.039319796954314715,-0.021455329949238575,0.004526395939086297
0.019,1.0,8.142605076142132,-3.518291370558376,-3.6147467005076144,-0.03933756345177664,-0.02146395939086294,0.0045167512690355354
0.02,1.0,8.142726395939086,-3.5179751269035537,-3.614722842639594,-0.03935532994923857,-0.021472588832487306,0.004507106598984774
0.021,1.0,8.14284771573604,-3.5176588832487314,-3.614698984771574,-0.0393730964467005,-0.02148121827411167,0.004497461928934013
0.022,1.0,8.142969035532994,-3.517342639593909,-3.6146751269035535,-0.039390862944162434,-0.021489847715736036,0.0044878172588832515
0.023,1.0,8.14309035532995,-3.5170263959390864,-3.6146512690355332,-0.03940862944162436,-0.021498477157360404,0.0044781725888324905
0.024,1.0,8.143211675126903,-3.516710152284264,-3.614627411167513,-0.03942639593908629,-0.02150710659898477,0.004468527918781729
0.025,1.0,8.143332994923858,-3.516393908629442,-3.6146035532994927,-0.03944416243654822,-0.021515736040609135,0.004458883248730968
0.026000000000000002,1.0,8.143454314720811,-3.5160776649746195,-3.6145796954314724,-0.03946192893401015,-0.0215243654822335,0.0044492385786802065
0.027,1.0,8.143575634517767,-3.515761421319797,-3.614555837563452,-0.039479695431472075,-0.021532994923857865,0.0044395939086294455
0.028,1.0,8.14369695431472,-3.515445177664975,-3.614531979695432,-0.039497461928934004,-0.02154162436548223,0.0044299492385786845
0.029,1.0,8.143818274111675,-3.5151289340101526,-3.6145081218274115,-0.03951522842639593,-0.021550253807106595,0.0044203045685279226
0.03,1.0,8.143939593908629,-3.5148126903553303,-3.614484263959391,-0.03953299492385786,-0.02155888324873096,0.0044106598984771615
0.031,1.0,8.144060913705584,-3.514496446700508,-3.6144604060913705,-0.03955076142131979,-0.021567512690355325,0.0044010152284264005
0.032,1.0,8.144182233502537,-3.5141802030456857,-3.6144365482233503,-0.03956852791878172,-0.02157614213197969,0.004391370558375639
0.033,1.0,8.144303553299492,-3.5138639593908634,-3.61441269035533,-0.039586294416243645,-0.021584771573604056,0.004381725888324878
0.034,1.0,8.144424873096446,-3.513547715736041,-3.6143888324873097,-0.03960406091370557,-0.02159340101522842,0.0043720812182741165
0.035,1.0,8.1445461928934,-3.5132314720812188,-3.6143649746192894,-0.0396218274111675,-0.021602030456852786,0.004362436548223355
0.036000000000000004,1.0,8.144667512690354,-3.5129152284263965,-3.614341116751269,-0.039639593908629436,-0.02161065989847715,0.004352791878172594
0.037,1.0,8.14478883248731,-3.512598984771574,-3.614317258883249,-0.039657360406091365,-0.021619289340101516,0.004343147208121833
0.038,1.0,8.144910152284263,-3.5122827411167514,-3.6142934010152286,-0.03967512690355329,-0.021627918781725885,0.004333502538071072
0.039,1.0,8.145031472081218,-3.511966497461929,-3.6142695431472083,-0.03969289340101522,-0.02163654822335025,0.00432385786802031
0.04,1.0,8.145152791878171,-3.511650253807107,-3.614245685279188,-0.03971065989847715,-0.021645177664974615,0.004314213197969549
0.041,1.0,8.145274111675127,-3.5113340101522845,-3.6142218274111677,-0.03972842639593908,-0.02165380710659898,0.004304568527918788
0.042,1.0,8.14539543147208,-3.5110177664974622,-3.6141979695431474,-0.039746192893401006,-0.021662436548223345,0.004294923857868026
0.043000000000000003,1.0,8.145516751269035,-3.51070152284264,-3.614174111675127,-0.039763959390862934,-0.02167106598984771,0.004285279187817265
0.044,1.0,8.14563807106599,-3.5103852791878176,-3.614150253807107,-0.03978172588832486,-0.021679695431472076,0.004275634517766504
0.045,1.0,8.145759390862944,-3.5100690355329953,-3.6141263959390866,-0.03979949238578679,-0.02168832487309644,0.004265989847715743
0.046,1.0,8.145880710659899,-3.509752791878173,-3.6141025380710663,-0.03981725888324872,-0.021696954314720806,0.004256345177664981
0.047,1.0,8.146002030456852,-3.5094365482233507,-3.614078680203046,-0.03983502538071065,-0.02170558375634517,0.00424670050761422
0.048,1.0,8.146123350253808,-3.5091203045685284,-3.6140548223350257,-0.039852791878172575,-0.021714213197969536,0.004237055837563459
0.049,1.0,8.146244670050761,-3.508804060913706,-3.6140309644670054,-0.0398705583756345,-0.0217228426395939,0.004227411167512697
0.05,1.0,8.146365989847716,-3.508487817258884,-3.6140071065989847,-0.03988832487309644,-0.021731472081218266,0.004217766497461936
0.051000000000000004,1.0,8.14648730964467,-3.5081715736040615,-3.6139832487309644,-0.039906091370558366,-0.02174010152284263,0.004208121827411175
0.052000000000000005,1.0,8.146608629441625,-3.507855329949239,-3.613959390862944,-0.039923857868020295,-0.021748730964467,0.004198477157360413
0.053,1.0,8.146729949238578,-3.5075390862944165,-3.613935532994924,-0.03994162436548222,-0.021757360406091365,0.004188832487309652
0.054,1.0,8.146851269035533,-3.507222842639594,-3.6139116751269036,-0.03995939086294415,-0.02176598984771573,0.004179187817258891
0.055,1.0,8.146972588832487,-3.506906598984772,-3.6138878172588833,-0.03997715736040608,-0.021774619289340096,0.004169543147208129
0.056,1.0,8.147093908629442,-3.5065903553299496,-3.613863959390863,-0.03999492385786801,-0.02178324873096446,0.004159898477157368
0.057,1.0,8.147215228426395,-3.5062741116751273,-3.6138401015228427,-0.040012690355329936,-0.021791878172588826,0.004150253807106607
0.058,1.0,8.14733654822335,-3.505957868020305,-3.6138162436548225,-0.040030456852791864,-0.02180050761421319,0.004140609137055846
0.059000000000000004,1.0,8.147457868020304,-3.5056416243654827,-3.613792385786802,-0.04004822335025379,-0.021809137055837556,0.004130964467005084
0.06,1.0,8.147579187817259,-3.5053253807106604,-3.613768527918782,-0.04006598984771572,-0.02181776649746192,0.004121319796954323
0.061,1.0,8.147700507614212,-3.505009137055838,-3.6137446700507616,-0.04008375634517765,-0.021826395939086286,0.004111675126903562
0.062,1.0,8.147821827411168,-3.5046928934010158,-3.6137208121827413,-0.04010152284263958,-0.02183502538071065,0.0041020304568528
0.063,1.0,8.147943147208121,-3.5043766497461935,-3.613696954314721,-0.040119289340101505,-0.021843654822335017,0.004092385786802039
0.064,1.0,8.148064467005076,-3.504060406091371,-3.6136730964467008,-0.04013705583756344,-0.02185228426395938,0.004082741116751278
0.065,1.0,8.14818578680203,-3.503744162436549,-3.6136492385786805,-0.04015482233502537,-0.021860913705583747,0.004073096446700517
0.066,1.0,8.148307106598985,-3.5034279187817265,-3.61362538071066,-0.040172588832487297,-0.021869543147208112,0.004063451776649755
0.067,1.0,8.148428426395938,-3.5031116751269042,-3.61360152284264,-0.040190355329949225,-0.021878172588832477,0.004053807106598994
0.068,1.0,8.148549746192893,-3.5027954314720815,-3.6135776649746196,-0.04020812182741115,-0.021886802030456846,0.004044162436548232
0.069,1.0,8.148671065989847,-3.502479187817259,-3.6135538071065993,-0.04022588832487308,-0.02189543147208121,0.004034517766497471
0.07,1.0,8.148792385786802,-3.502162944162437,-3.6135299492385786,-0.04024365482233501,-0.021904060913705576,0.00402487309644671
0.07100000000000001,1.0,8.148913705583755,-3.5018467005076146,-3.6135060913705583,-0.04026142131979694,-0.02191269035532994,0.004015228426395949
0.07200000000000001,1.0,8.14903502538071,-3.5015304568527923,-3.613482233502538,-0.040279187817258866,-0.021921319796954306,0.004005583756345187
0.073,1.0,8.149156345177664,-3.50121421319797,-3.6134583756345178,-0.040296954314720794,-0.02192994923857867,0.003995939086294426
0.074,1.0,8.149277664974619,-3.5008979695431477,-3.6134345177664975,-0.04031472081218272,-0.021938578680203037,0.003986294416243665
0.075,1.0,8.149398984771572,-3.5005817258883254,-3.613410659898477,-0.04033248730964465,-0.0219472081218274,0.003976649746192903
0.076,1.0,8.149520304568528,-3.500265482233503,-3.613386802030457,-0.04035025380710658,-0.021955837563451767,0.003967005076142142
0.077,1.0,8.149641624365481,-3.499949238578681,-3.6133629441624366,-0.04036802030456851,-0.021964467005076132,0.003957360406091381
0.078,1.0,8.149762944162436,-3.4996329949238585,-3.6133390862944164,-0.04038578680203044,-0.021973096446700497,0.00394771573604062
0.079,1.0,8.14988426395939,-3.499316751269036,-3.613315228426396,-0.04040355329949237,-0.021981725888324862,0.003938071065989858
0.08,1.0,8.150005583756345,-3.499000507614214,-3.613291370558376,-0.0404213197969543,-0.021990355329949227,0.003928426395939097
0.081,1.0,8.150126903553298,-3.4986842639593916,-3.6132675126903555,-0.04043908629441623,-0.021998984771573592,0.003918781725888336
0.082,1.0,8.150248223350253,-3.4983680203045693,-3.6132436548223352,-0.040456852791878155,-0.02200761421319796,0.003909137055837574
0.083,1.0,8.150369543147207,-3.4980517766497465,-3.613219796954315,-0.04047461928934008,-0.022016243654822326,0.003899492385786813
0.084,1.0,8.150490862944162,-3.4977355329949242,-3.6131959390862947,-0.04049238578680201,-0.02202487309644669,0.003889847715736052
0.085,1.0,8.150612182741115,-3.497419289340102,-3.6131720812182744,-0.04051015228426394,-0.022033502538071056,0.0038802030456852907
0.08600000000000001,1.0,8.15073350253807,-3.4971030456852796,-3.613148223350254,-0.04052791878172587,-0.02204213197969542,0.003870558375634529
0.08700000000000001,1.0,8.150854822335026,-3.4967868020304573,-3.613124365482234,-0.040545685279187796,-0.022050761421319787,0.003860913705583768
0.088,1.0,8.150976142131979,-3.496470558375635,-3.6131005076142135,-0.040563451776649724,-0.022059390862944152,0.0038512690355330067
0.089,1.0,8.151097461928934,-3.4961543147208127,-3.6130766497461932,-0.04058121827411165,-0.022068020304568517,0.0038416243654822457
0.09,1.0,8.151218781725888,-3.4958380710659904,-3.6130527918781725,-0.04059898477157358,-0.022076649746192882,0.003831979695431484
0.091,1.0,8.151340101522843,-3.495521827411168,-3.6130289340101522,-0.04061675126903551,-0.022085279187817247,0.003822335025380723
0.092,1.0,8.151461421319796,-3.495205583756346,-3.613005076142132,-0.040634517766497444,-0.022093908629441612,0.0038126903553299617
0.093,1.0,8.151582741116751,-3.4948893401015235,-3.6129812182741117,-0.04065228426395937,-0.022102538071065977,0.0038030456852792003
0.094,1.0,8.151704060913705,-3.494573096446701,-3.6129573604060914,-0.0406700507614213,-0.022111167512690343,0.0037934010152284392
0.095,1.0,8.15182538071066,-3.494256852791879,-3.612933502538071,-0.04068781725888323,-0.022119796954314708,0.0037837563451776778
0.096,1.0,8.151946700507613,-3.4939406091370566,-3.612909644670051,-0.04070558375634516,-0.022128426395939073,0.0037741116751269163
0.097,1.0,8.152068020304569,-3.4936243654822343,-3.6128857868020305,-0.040723350253807085,-0.022137055837563438,0.0037644670050761553
0.098,1.0,8.152189340101522,-3.493308121827412,-3.6128619289340103,-0.04074111675126901,-0.022145685279187807,0.003754822335025394
0.099,1.0,8.152310659898477,-3.4929918781725893,-3.61283807106599,-0.04075888324873094,-0.02215431472081217,0.0037451776649746324
0.1,1.0,8.15243197969543,-3.492675634517767,-3.6128142131979697,-0.04077664974619287,-0.022162944162436537,0.0037355329949238713
0.101,1.0,8.152553299492386,-3.4923593908629447,-3.6127903553299494,-0.0407944162436548,-0.022171573604060902,0.00372588832487311
0.10200000000000001,1.0,8.15267461928934,-3.4920431472081224,-3.612766497461929,-0.040812182741116726,-0.022180203045685267,0.0037162436548223484
0.10300000000000001,1.0,8.152795939086294,-3.4917269035533,-3.612742639593909,-0.040829949238578654,-0.022188832487309632,0.0037065989847715874
0.10400000000000001,1.0,8.152917258883248,-3.4914106598984778,-3.6127187817258886,-0.04084771573604058,-0.022197461928933997,0.0036969543147208263
0.105,1.0,8.153038578680203,-3.4910944162436555,-3.6126949238578683,-0.04086548223350251,-0.022206091370558362,0.003687309644670065
0.106,1.0,8.153159898477156,-3.490778172588833,-3.612671065989848,-0.040883248730964446,-0.022214720812182728,0.0036776649746193034
0.107,1.0,8.153281218274111,-3.490461928934011,-3.6126472081218277,-0.040901015228426374,-0.022223350253807093,0.0036680203045685424
0.108,1.0,8.153402538071065,-3.4901456852791886,-3.6126233502538074,-0.0409187817258883,-0.022231979695431458,0.003658375634517781
0.109,1.0,8.15352385786802,-3.4898294416243663,-3.612599492385787,-0.04093654822335023,-0.022240609137055823,0.0036487309644670195
0.11,1.0,8.153645177664973,-3.489513197969544,-3.6125756345177664,-0.04095431472081216,-0.022249238578680188,0.0036390862944162584
0.111,1.0,8.153766497461929,-3.4891969543147217,-3.612551776649746,-0.04097208121827409,-0.022257868020304553,0.0036294416243654974
0.112,1.0,8.153887817258882,-3.4888807106598994,-3.612527918781726,-0.040989847715736015,-0.022266497461928922,0.0036197969543147355
0.113,1.0,8.154009137055837,-3.488564467005077,-3.6125040609137056,-0.04100761421319794,-0.022275126903553287,0.0036101522842639745
0.114,1.0,8.15413045685279,-3.4882482233502543,-3.6124802030456853,-0.04102538071065987,-0.022283756345177652,0.0036005076142132135
0.115,1.0,8.154251776649746,-3.487931979695432,-3.612456345177665,-0.0410431472081218,-0.022292385786802017,0.003590862944162452
0.116,1.0,8.1543730964467,-3.4876157360406097,-3.6124324873096447,-0.04106091370558373,-0.022301015228426382,0.0035812182741116905
0.117,1.0,8.154494416243654,-3.4872994923857874,-3.6124086294416244,-0.041078680203045656,-0.022309644670050748,0.0035715736040609295
0.11800000000000001,1.0,8.154615736040608,-3.486983248730965,-3.612384771573604,-0.041096446700507584,-0.022318274111675113,0.003561928934010168
0.11900000000000001,1.0,8.154737055837563,-3.486667005076143,-3.612360913705584,-0.04111421319796951,-0.022326903553299478,0.0035522842639594066
0.12,1.0,8.154858375634516,-3.4863507614213205,-3.6123370558375636,-0.04113197969543145,-0.022335532994923843,0.0035426395939086456
0.121,1.0,8.154979695431471,-3.486034517766498,-3.6123131979695433,-0.041149746192893376,-0.022344162436548208,0.0035329949238578845
0.122,1.0,8.155101015228425,-3.485718274111676,-3.612289340101523,-0.041167512690355304,-0.022352791878172573,0.003523350253807123
0.123,1.0,8.15522233502538,-3.4854020304568536,-3.6122654822335027,-0.04118527918781723,-0.02236142131979694,0.0035137055837563616
0.124,1.0,8.155343654822333,-3.4850857868020313,-3.6122416243654825,-0.04120304568527916,-0.022370050761421303,0.0035040609137056006
0.125,1.0,8.155464974619289,-3.484769543147209,-3.612217766497462,-0.04122081218274109,-0.02237868020304567,0.003494416243654839
0.126,1.0,8.155586294416242,-3.4844532994923867,-3.612193908629442,-0.04123857868020302,-0.022387309644670034,0.0034847715736040777
0.127,1.0,8.155707614213197,-3.4841370558375644,-3.6121700507614216,-0.041256345177664945,-0.0223959390862944,0.0034751269035533166
0.128,1.0,8.155828934010152,-3.483820812182742,-3.6121461928934013,-0.04127411167512687,-0.022404568527918767,0.003465482233502555
0.129,1.0,8.155950253807106,-3.4835045685279193,-3.612122335025381,-0.0412918781725888,-0.022413197969543133,0.0034558375634517937
0.13,1.0,8.156071573604061,-3.483188324873097,-3.6120984771573603,-0.04130964467005073,-0.022421827411167498,0.0034461928934010327
0.131,1.0,8.156192893401014,-3.4828720812182747,-3.61207461928934,-0.04132741116751266,-0.022430456852791863,0.0034365482233502716
0.132,1.0,8.15631421319797,-3.4825558375634524,-3.6120507614213198,-0.041345177664974586,-0.022439086294416228,0.0034269035532995097
0.133,1.0,8.156435532994923,-3.48223959390863,-3.6120269035532995,-0.041362944162436514,-0.022447715736040593,0.0034172588832487487
0.134,1.0,8.156556852791878,-3.481923350253808,-3.612003045685279,-0.04138071065989845,-0.022456345177664958,0.0034076142131979877
0.135,1.0,8.156678172588832,-3.4816071065989855,-3.611979187817259,-0.04139847715736038,-0.022464974619289323,0.0033979695431472262
0.136,1.0,8.156799492385787,-3.4812908629441632,-3.6119553299492386,-0.041416243654822306,-0.02247360406091369,0.0033883248730964648
0.137,1.0,8.15692081218274,-3.480974619289341,-3.6119314720812183,-0.041434010152284234,-0.022482233502538054,0.0033786802030457037
0.138,1.0,8.157042131979695,-3.4806583756345186,-3.611907614213198,-0.04145177664974616,-0.02249086294416242,0.0033690355329949423
0.139,1.0,8.157163451776649,-3.4803421319796963,-3.6118837563451778,-0.04146954314720809,-0.022499492385786784,0.003359390862944181
0.14,1.0,8.157284771573604,-3.480025888324874,-3.6118598984771575,-0.04148730964467002,-0.02250812182741115,0.00334974619289342
0.14100000000000001,1.0,8.157406091370557,-3.4797096446700517,-3.611836040609137,-0.04150507614213195,-0.022516751269035518,0.0033401015228426583
0.14200000000000002,1.0,8.157527411167512,-3.4793934010152294,-3.611812182741117,-0.041522842639593875,-0.022525380710659883,0.003330456852791897
0.14300000000000002,1.0,8.157648730964466,-3.479077157360407,-3.6117883248730966,-0.0415406091370558,-0.022534010152284248,0.003320812182741136
0.14400000000000002,1.0,8.157770050761421,-3.4787609137055844,-3.6117644670050764,-0.04155837563451773,-0.022542639593908613,0.0033111675126903744
0.145,1.0,8.157891370558374,-3.478444670050762,-3.611740609137056,-0.04157614213197966,-0.022551269035532978,0.0033015228426396133
0.146,1.0,8.15801269035533,-3.4781284263959398,-3.611716751269036,-0.04159390862944159,-0.022559898477157343,0.003291878172588852
0.147,1.0,8.158134010152283,-3.4778121827411175,-3.6116928934010155,-0.041611675126903516,-0.02256852791878171,0.003282233502538091
0.148,1.0,8.158255329949238,-3.477495939086295,-3.6116690355329952,-0.04162944162436545,-0.022577157360406074,0.00327258883248733
0.149,1.0,8.158376649746192,-3.477179695431473,-3.611645177664975,-0.04164720812182738,-0.02258578680203044,0.003262944162436568
0.15,1.0,8.158497969543147,-3.4768634517766506,-3.611621319796954,-0.04166497461928931,-0.022594416243654804,0.003253299492385807
0.151,1.0,8.1586192893401,-3.4765472081218283,-3.611597461928934,-0.041682741116751236,-0.02260304568527917,0.003243654822335046
0.152,1.0,8.158740609137055,-3.476230964467006,-3.6115736040609137,-0.041700507614213164,-0.022611675126903534,0.0032340101522842844
0.153,1.0,8.158861928934009,-3.4759147208121837,-3.6115497461928934,-0.04171827411167509,-0.0226203045685279,0.003224365482233523
0.154,1.0,8.158983248730964,-3.4755984771573614,-3.611525888324873,-0.04173604060913702,-0.022628934010152264,0.003214720812182762
0.155,1.0,8.159104568527917,-3.475282233502539,-3.611502030456853,-0.04175380710659895,-0.02263756345177663,0.0032050761421320005
0.156,1.0,8.159225888324872,-3.4749659898477168,-3.6114781725888325,-0.04177157360406088,-0.022646192893400995,0.003195431472081239
0.157,1.0,8.159347208121826,-3.4746497461928945,-3.6114543147208122,-0.041789340101522805,-0.02265482233502536,0.003185786802030478
0.158,1.0,8.159468527918781,-3.474333502538072,-3.611430456852792,-0.041807106598984733,-0.02266345177664973,0.0031761421319797165
0.159,1.0,8.159589847715734,-3.4740172588832494,-3.6114065989847717,-0.04182487309644666,-0.022672081218274093,0.003166497461928955
0.16,1.0,8.15971116751269,-3.473701015228427,-3.6113827411167514,-0.04184263959390859,-0.02268071065989846,0.003156852791878194
0.161,1.0,8.159832487309643,-3.473384771573605,-3.611358883248731,-0.04186040609137052,-0.022689340101522824,0.003147208121827433
0.162,1.0,8.159953807106598,-3.4730685279187825,-3.611335025380711,-0.041878172588832446,-0.02269796954314719,0.003137563451776671
0.163,1.0,8.160075126903552,-3.47275228426396,-3.6113111675126905,-0.04189593908629438,-0.022706598984771554,0.00312791878172591
0.164,1.0,8.160196446700507,-3.472436040609138,-3.6112873096446703,-0.04191370558375631,-0.02271522842639592,0.003118274111675149
0.165,1.0,8.16031776649746,-3.4721197969543156,-3.61126345177665,-0.04193147208121824,-0.022723857868020284,0.0031086294416243876
0.166,1.0,8.160439086294415,-3.4718035532994933,-3.6112395939086297,-0.041949238578680166,-0.02273248730964465,0.003098984771573626
0.167,1.0,8.160560406091369,-3.471487309644671,-3.6112157360406094,-0.041967005076142094,-0.022741116751269014,0.003089340101522865
0.168,1.0,8.160681725888324,-3.4711710659898487,-3.611191878172589,-0.04198477157360402,-0.02274974619289338,0.0030796954314721036
0.169,1.0,8.160803045685277,-3.4708548223350264,-3.611168020304569,-0.04200253807106595,-0.022758375634517745,0.003070050761421342
0.17,1.0,8.160924365482233,-3.470538578680204,-3.611144162436548,-0.04202030456852788,-0.02276700507614211,0.003060406091370581
0.171,1.0,8.161045685279188,-3.470222335025382,-3.611120304568528,-0.04203807106598981,-0.02277563451776648,0.0030507614213198197
0.17200000000000001,1.0,8.161167005076141,-3.4699060913705595,-3.6110964467005076,-0.042055837563451735,-0.022784263959390844,0.003041116751269058
0.17300000000000001,1.0,8.161288324873096,-3.469589847715737,-3.6110725888324873,-0.042073604060913664,-0.02279289340101521,0.003031472081218297
0.17400000000000002,1.0,8.16140964467005,-3.4692736040609145,-3.611048730964467,-0.04209137055837559,-0.022801522842639574,0.0030218274111675357
0.17500000000000002,1.0,8.161530964467005,-3.468957360406092,-3.6110248730964467,-0.04210913705583752,-0.02281015228426394,0.0030121827411167743
0.176,1.0,8.161652284263958,-3.46864111675127,-3.6110010152284264,-0.042126903553299455,-0.022818781725888304,0.0030025380710660132
0.177,1.0,8.161773604060913,-3.4683248730964475,-3.610977157360406,-0.04214467005076138,-0.02282741116751267,0.002992893401015252
0.178,1.0,8.161894923857867,-3.4680086294416252,-3.610953299492386,-0.04216243654822331,-0.022836040609137034,0.002983248730964491
0.179,1.0,8.162016243654822,-3.467692385786803,-3.6109294416243656,-0.04218020304568524,-0.0228446700507614,0.0029736040609137297
0.18,1.0,8.162137563451775,-3.4673761421319806,-3.6109055837563453,-0.04219796954314717,-0.022853299492385765,0.0029639593908629682
0.181,1.0,8.16225888324873,-3.4670598984771583,-3.610881725888325,-0.042215736040609096,-0.02286192893401013,0.002954314720812207
0.182,1.0,8.162380203045684,-3.466743654822336,-3.6108578680203047,-0.042233502538071024,-0.022870558375634495,0.0029446700507614458
0.183,1.0,8.16250152284264,-3.4664274111675137,-3.6108340101522844,-0.04225126903553295,-0.02287918781725886,0.0029350253807106843
0.184,1.0,8.162622842639593,-3.4661111675126914,-3.610810152284264,-0.04226903553299488,-0.022887817258883225,0.0029253807106599233
0.185,1.0,8.162744162436548,-3.465794923857869,-3.610786294416244,-0.04228680203045681,-0.02289644670050759,0.002915736040609162
0.186,1.0,8.162865482233501,-3.465478680203047,-3.6107624365482236,-0.04230456852791874,-0.022905076142131955,0.0029060913705584003
0.187,1.0,8.162986802030456,-3.4651624365482245,-3.6107385786802033,-0.042322335025380665,-0.02291370558375632,0.0028964467005076393
0.188,1.0,8.16310812182741,-3.4648461928934022,-3.610714720812183,-0.042340101522842594,-0.02292233502538069,0.002886802030456878
0.189,1.0,8.163229441624365,-3.4645299492385795,-3.6106908629441627,-0.04235786802030452,-0.022930964467005054,0.0028771573604061164
0.19,1.0,8.163350761421318,-3.464213705583757,-3.610667005076142,-0.04237563451776645,-0.02293959390862942,0.0028675126903553554
0.191,1.0,8.163472081218274,-3.463897461928935,-3.6106431472081217,-0.042393401015228385,-0.022948223350253785,0.0028578680203045943
0.192,1.0,8.163593401015227,-3.4635812182741126,-3.6106192893401015,-0.04241116751269031,-0.02295685279187815,0.0028482233502538324
0.193,1.0,8.163714720812182,-3.4632649746192903,-3.610595431472081,-0.04242893401015224,-0.022965482233502515,0.0028385786802030714
0.194,1.0,8.163836040609135,-3.462948730964468,-3.610571573604061,-0.04244670050761417,-0.02297411167512688,0.0028289340101523104
0.195,1.0,8.16395736040609,-3.4626324873096457,-3.6105477157360406,-0.0424644670050761,-0.022982741116751245,0.002819289340101549
0.196,1.0,8.164078680203044,-3.4623162436548234,-3.6105238578680203,-0.042482233502538026,-0.02299137055837561,0.0028096446700507875
0.197,1.0,8.1642,-3.462000000000001,-3.6105,-0.042499999999999954,-0.022999999999999975,0.0028000000000000264
0.198,1.0,8.16425496183206,-3.4619270992366418,-3.6105362595419845,-0.04246374045801537,-0.02300992366412211,0.0028885496183203695
0.199,1.0,8.16430992366412,-3.461854198473283,-3.6105725190839695,-0.04242748091603064,-0.023019847328244247,0.0029770992366409802
0.2,1.0,8.164364885496182,-3.461781297709924,-3.610608778625954,-0.042391221374045905,-0.023029770992366385,0.003065648854961591
0.201,1.0,8.164419847328244,-3.461708396946565,-3.610645038167939,-0.04235496183206117,-0.023039694656488523,0.0031541984732822016
0.202,1.0,8.164474809160305,-3.4616354961832063,-3.6106812977099234,-0.042318702290076435,-0.02304961832061066,0.0032427480916028123
0.203,1.0,8.164529770992365,-3.461562595419848,-3.6107175572519083,-0.0422824427480917,-0.023059541984732798,0.0033312977099234226
0.20400000000000001,1.0,8.164584732824427,-3.461489694656489,-3.6107538167938933,-0.04224618320610697,-0.023069465648854936,0.0034198473282440332
0.20500000000000002,1.0,8.164639694656488,-3.46141679389313,-3.610790076335878,-0.04220992366412224,-0.02307938931297707,0.003508396946564644
0.20600000000000002,1.0,8.164694656488548,-3.4613438931297713,-3.6108263358778627,-0.04217366412213751,-0.023089312977099208,0.0035969465648852546
0.20700000000000002,1.0,8.16474961832061,-3.4612709923664124,-3.610862595419847,-0.042137404580152776,-0.023099236641221346,0.0036854961832058653
0.20800000000000002,1.0,8.164804580152671,-3.461198091603054,-3.610898854961832,-0.04210114503816804,-0.023109160305343483,0.0037740458015264756
0.209,1.0,8.164859541984733,-3.461125190839695,-3.6109351145038167,-0.042064885496183306,-0.02311908396946562,0.003862595419847084
0.21,1.0,8.164914503816792,-3.4610522900763363,-3.6109713740458016,-0.042028625954198574,-0.02312900763358776,0.003951145038167694
0.211,1.0,8.164969465648854,-3.4609793893129774,-3.611007633587786,-0.04199236641221384,-0.023138931297709896,0.004039694656488305
0.212,1.0,8.165024427480915,-3.4609064885496186,-3.611043893129771,-0.04195610687022911,-0.023148854961832034,0.004128244274808916
0.213,1.0,8.165079389312977,-3.4608335877862597,-3.6110801526717555,-0.04191984732824438,-0.023158778625954172,0.004216793893129526
0.214,1.0,8.165134351145037,-3.4607606870229013,-3.6111164122137405,-0.04188358778625965,-0.02316870229007631,0.004305343511450137
0.215,1.0,8.165189312977098,-3.4606877862595424,-3.611152671755725,-0.04184732824427491,-0.023178625954198447,0.004393893129770747
0.216,1.0,8.16524427480916,-3.4606148854961836,-3.61118893129771,-0.04181106870229018,-0.02318854961832058,0.004482442748091358
0.217,1.0,8.16529923664122,-3.4605419847328247,-3.6112251908396944,-0.041774809160305446,-0.02319847328244272,0.004570992366411969
0.218,1.0,8.165354198473281,-3.460469083969466,-3.6112614503816793,-0.041738549618320714,-0.023208396946564857,0.004659541984732579
0.219,1.0,8.165409160305343,-3.4603961832061074,-3.6112977099236643,-0.04170229007633598,-0.023218320610686995,0.00474809160305319
0.22,1.0,8.165464122137404,-3.4603232824427486,-3.6113339694656488,-0.04166603053435125,-0.023228244274809132,0.0048366412213738
0.221,1.0,8.165519083969464,-3.4602503816793897,-3.6113702290076337,-0.04162977099236652,-0.02323816793893127,0.004925190839694411
0.222,1.0,8.165574045801526,-3.460177480916031,-3.611406488549618,-0.04159351145038178,-0.023248091603053408,0.005013740458015022
0.223,1.0,8.165629007633587,-3.460104580152672,-3.611442748091603,-0.04155725190839705,-0.023258015267175546,0.005102290076335632
0.224,1.0,8.165683969465649,-3.4600316793893136,-3.6114790076335876,-0.04152099236641232,-0.023267938931297683,0.005190839694656243
0.225,1.0,8.165738931297708,-3.4599587786259547,-3.6115152671755726,-0.041484732824427585,-0.02327786259541982,0.005279389312976853
0.226,1.0,8.16579389312977,-3.459885877862596,-3.611551526717557,-0.04144847328244285,-0.02328778625954196,0.005367938931297464
0.227,1.0,8.165848854961832,-3.459812977099237,-3.611587786259542,-0.04141221374045812,-0.023297709923664093,0.005456488549618075
0.228,1.0,8.165903816793893,-3.459740076335878,-3.6116240458015265,-0.04137595419847338,-0.02330763358778623,0.005545038167938685
0.229,1.0,8.165958778625953,-3.4596671755725192,-3.6116603053435115,-0.04133969465648865,-0.02331755725190837,0.005633587786259296
0.23,1.0,8.166013740458014,-3.459594274809161,-3.611696564885496,-0.04130343511450392,-0.023327480916030506,0.0057221374045799064
0.231,1.0,8.166068702290076,-3.459521374045802,-3.611732824427481,-0.04126717557251919,-0.023337404580152644,0.005810687022900517
0.232,1.0,8.166123664122136,-3.459448473282443,-3.6117690839694654,-0.041230916030534456,-0.02334732824427478,0.005899236641221128
0.233,1.0,8.166178625954197,-3.4593755725190842,-3.6118053435114503,-0.041194656488549725,-0.02335725190839692,0.005987786259541738
0.234,1.0,8.166233587786259,-3.4593026717557254,-3.6118416030534353,-0.041158396946564986,-0.023367175572519057,0.006076335877862349
0.23500000000000001,1.0,8.16628854961832,-3.459229770992367,-3.6118778625954198,-0.041122137404580254,-0.023377099236641195,0.0061648854961829595
0.23600000000000002,1.0,8.16634351145038,-3.459156870229008,-3.6119141221374047,-0.04108587786259552,-0.023387022900763332,0.00625343511450357
0.23700000000000002,1.0,8.166398473282442,-3.459083969465649,-3.611950381679389,-0.04104961832061079,-0.02339694656488547,0.006341984732824181
0.23800000000000002,1.0,8.166453435114503,-3.4590110687022904,-3.611986641221374,-0.04101335877862606,-0.023406870229007604,0.006430534351144791
0.23900000000000002,1.0,8.166508396946565,-3.4589381679389315,-3.6120229007633586,-0.04097709923664133,-0.023416793893129742,0.006519083969465402
0.24,1.0,8.166563358778625,-3.458865267175573,-3.6120591603053436,-0.040940839694656596,-0.02342671755725188,0.00660763358778601
0.241,1.0,8.166618320610686,-3.458792366412214,-3.612095419847328,-0.04090458015267186,-0.023436641221374017,0.006696183206106621
0.242,1.0,8.166673282442748,-3.4587194656488554,-3.612131679389313,-0.040868320610687126,-0.023446564885496155,0.006784732824427231
0.243,1.0,8.166728244274807,-3.4586465648854965,-3.6121679389312975,-0.040832061068702394,-0.023456488549618293,0.0068732824427478415
0.244,1.0,8.166783206106869,-3.4585736641221376,-3.6122041984732824,-0.04079580152671766,-0.02346641221374043,0.006961832061068452
0.245,1.0,8.16683816793893,-3.4585007633587788,-3.612240458015267,-0.04075954198473293,-0.02347633587786257,0.007050381679389064
0.246,1.0,8.166893129770992,-3.4584278625954203,-3.612276717557252,-0.0407232824427482,-0.023486259541984706,0.007138931297709674
0.247,1.0,8.166948091603052,-3.4583549618320615,-3.6123129770992364,-0.04068702290076347,-0.023496183206106844,0.007227480916030284
0.248,1.0,8.167003053435113,-3.4582820610687026,-3.6123492366412213,-0.04065076335877873,-0.023506106870228978,0.0073160305343508945
0.249,1.0,8.167058015267175,-3.4582091603053438,-3.6123854961832063,-0.040614503816794,-0.023516030534351116,0.007404580152671505
0.25,1.0,8.167112977099237,-3.458136259541985,-3.6124217557251908,-0.040578244274809265,-0.023525954198473253,0.007493129770992117
0.251,1.0,8.167167938931296,-3.4580633587786265,-3.6124580152671757,-0.04054198473282453,-0.02353587786259539,0.007581679389312727
0.252,1.0,8.167222900763358,-3.4579904580152676,-3.61249427480916,-0.0405057251908398,-0.02354580152671753,0.007670229007633337
0.253,1.0,8.16727786259542,-3.4579175572519087,-3.612530534351145,-0.04046946564885507,-0.023555725190839667,0.0077587786259539476
0.254,1.0,8.16733282442748,-3.45784465648855,-3.6125667938931296,-0.04043320610687033,-0.023565648854961804,0.007847328244274558
0.255,1.0,8.16738778625954,-3.457771755725191,-3.6126030534351146,-0.0403969465648856,-0.023575572519083942,0.00793587786259517
0.256,1.0,8.167442748091602,-3.457698854961832,-3.612639312977099,-0.04036068702290087,-0.02358549618320608,0.00802442748091578
0.257,1.0,8.167497709923664,-3.4576259541984737,-3.612675572519084,-0.040324427480916136,-0.023595419847328217,0.00811297709923639
0.258,1.0,8.167552671755724,-3.457553053435115,-3.6127118320610685,-0.040288167938931405,-0.023605343511450355,0.008201526717557
0.259,1.0,8.167607633587785,-3.457480152671756,-3.6127480916030534,-0.04025190839694667,-0.02361526717557249,0.00829007633587761
0.26,1.0,8.167662595419847,-3.457407251908397,-3.612784351145038,-0.040215648854961934,-0.023625190839694627,0.008378625954198223
0.261,1.0,8.167717557251908,-3.4573343511450383,-3.612820610687023,-0.0401793893129772,-0.023635114503816765,0.008467175572518833
0.262,1.0,8.167772519083968,-3.45726145038168,-3.612856870229008,-0.04014312977099247,-0.023645038167938903,0.008555725190839443
0.263,1.0,8.16782748091603,-3.457188549618321,-3.6128931297709923,-0.04010687022900774,-0.02365496183206104,0.008644274809160054
0.264,1.0,8.167882442748091,-3.457115648854962,-3.6129293893129772,-0.04007061068702301,-0.023664885496183178,0.008732824427480664
0.265,1.0,8.167937404580151,-3.4570427480916033,-3.6129656488549617,-0.040034351145038276,-0.023674809160305316,0.008821374045801274
0.266,1.0,8.167992366412212,-3.4569698473282444,-3.6130019083969467,-0.03999809160305354,-0.023684732824427453,0.008909923664121886
0.267,1.0,8.168047328244274,-3.456896946564886,-3.613038167938931,-0.039961832061068805,-0.02369465648854959,0.008998473282442496
0.268,1.0,8.168102290076336,-3.456824045801527,-3.613074427480916,-0.039925572519084074,-0.02370458015267173,0.009087022900763107
0.269,1.0,8.168157251908395,-3.4567511450381683,-3.6131106870229006,-0.03988931297709934,-0.023714503816793867,0.009175572519083717
0.27,1.0,8.168212213740457,-3.4566782442748094,-3.6131469465648856,-0.03985305343511461,-0.023724427480916,0.009264122137404327
0.271,1.0,8.168267175572518,-3.4566053435114505,-3.61318320610687,-0.03981679389312988,-0.02373435114503814,0.009352671755724939
0.272,1.0,8.16832213740458,-3.4565324427480917,-3.613219465648855,-0.03978053435114515,-0.023744274809160276,0.00944122137404555
0.273,1.0,8.16837709923664,-3.4564595419847333,-3.6132557251908395,-0.03974427480916041,-0.023754198473282414,0.00952977099236616
0.274,1.0,8.168432061068701,-3.4563866412213744,-3.6132919847328244,-0.03970801526717568,-0.02376412213740455,0.00961832061068677
0.275,1.0,8.168487022900763,-3.4563137404580155,-3.613328244274809,-0.039671755725190945,-0.02377404580152669,0.00970687022900738
0.276,1.0,8.168541984732824,-3.4562408396946567,-3.613364503816794,-0.03963549618320621,-0.023783969465648827,0.009795419847327992
0.277,1.0,8.168596946564884,-3.456167938931298,-3.613400763358779,-0.03959923664122148,-0.023793893129770965,0.009883969465648602
0.278,1.0,8.168651908396946,-3.4560950381679394,-3.6134370229007633,-0.03956297709923675,-0.023803816793893103,0.009972519083969213
0.279,1.0,8.168706870229007,-3.4560221374045805,-3.6134732824427482,-0.03952671755725201,-0.02381374045801524,0.010061068702289823
0.28,1.0,8.168761832061067,-3.4559492366412217,-3.6135095419847327,-0.03949045801526728,-0.023823664122137378,0.010149618320610433
0.281,1.0,8.168816793893129,-3.455876335877863,-3.6135458015267177,-0.03945419847328255,-0.023833587786259512,0.010238167938931045
0.28200000000000003,1.0,8.16887175572519,-3.455803435114504,-3.613582061068702,-0.039417938931297816,-0.02384351145038165,0.010326717557251655
0.28300000000000003,1.0,8.168926717557252,-3.4557305343511455,-3.613618320610687,-0.039381679389313085,-0.023853435114503788,0.010415267175572266
0.28400000000000003,1.0,8.168981679389312,-3.4556576335877867,-3.6136545801526716,-0.03934541984732835,-0.023863358778625925,0.010503816793892876
0.28500000000000003,1.0,8.169036641221373,-3.455584732824428,-3.6136908396946565,-0.039309160305343614,-0.023873282442748063,0.010592366412213486
0.28600000000000003,1.0,8.169091603053435,-3.455511832061069,-3.613727099236641,-0.03927290076335888,-0.0238832061068702,0.010680916030534098
0.28700000000000003,1.0,8.169146564885496,-3.45543893129771,-3.613763358778626,-0.03923664122137415,-0.02389312977099234,0.010769465648854708
0.28800000000000003,1.0,8.169201526717556,-3.455366030534351,-3.6137996183206105,-0.03920038167938942,-0.023903053435114476,0.010858015267175319
0.289,1.0,8.169256488549618,-3.455293129770993,-3.6138358778625954,-0.03916412213740469,-0.023912977099236614,0.010946564885495925
0.29,1.0,8.169311450381679,-3.455220229007634,-3.61387213740458,-0.039127862595419956,-0.023922900763358748,0.011035114503816536
0.291,1.0,8.169366412213739,-3.455147328244275,-3.613908396946565,-0.039091603053435224,-0.023932824427480886,0.011123664122137146
0.292,1.0,8.1694213740458,-3.455074427480916,-3.61394465648855,-0.03905534351145049,-0.023942748091603024,0.011212213740457756
0.293,1.0,8.169476335877862,-3.4550015267175573,-3.6139809160305343,-0.039019083969465754,-0.02395267175572516,0.011300763358778367
0.294,1.0,8.169531297709923,-3.454928625954199,-3.6140171755725192,-0.03898282442748102,-0.0239625954198473,0.011389312977098979
0.295,1.0,8.169586259541983,-3.45485572519084,-3.6140534351145037,-0.03894656488549629,-0.023972519083969437,0.011477862595419589
0.296,1.0,8.169641221374045,-3.454782824427481,-3.6140896946564887,-0.03891030534351156,-0.023982442748091574,0.011566412213740199
0.297,1.0,8.169696183206106,-3.4547099236641223,-3.614125954198473,-0.03887404580152683,-0.023992366412213712,0.01165496183206081
0.298,1.0,8.169751145038168,-3.4546370229007635,-3.614162213740458,-0.038837786259542095,-0.02400229007633585,0.01174351145038142
0.299,1.0,8.169806106870228,-3.454564122137405,-3.6141984732824426,-0.038801526717557364,-0.024012213740457988,0.011832061068702032
0.3,1.0,8.16986106870229,-3.454491221374046,-3.6142347328244275,-0.038765267175572625,-0.024022137404580125,0.011920610687022642
0.301,1.0,8.16991603053435,-3.4544183206106873,-3.614270992366412,-0.03872900763358789,-0.02403206106870226,0.012009160305343252
0.302,1.0,8.16997099236641,-3.4543454198473285,-3.614307251908397,-0.03869274809160316,-0.024041984732824397,0.012097709923663862
0.303,1.0,8.170025954198472,-3.4542725190839696,-3.6143435114503815,-0.03865648854961843,-0.024051908396946535,0.012186259541984473
0.304,1.0,8.170080916030534,-3.4541996183206107,-3.6143797709923664,-0.0386202290076337,-0.024061832061068673,0.012274809160305085
0.305,1.0,8.170135877862595,-3.4541267175572523,-3.614416030534351,-0.03858396946564896,-0.02407175572519081,0.012363358778625695
0.306,1.0,8.170190839694655,-3.4540538167938934,-3.614452290076336,-0.03854770992366423,-0.024081679389312948,0.012451908396946305
0.307,1.0,8.170245801526717,-3.4539809160305346,-3.614488549618321,-0.038511450381679496,-0.024091603053435086,0.012540458015266915
0.308,1.0,8.170300763358778,-3.4539080152671757,-3.6145248091603053,-0.038475190839694764,-0.024101526717557224,0.012629007633587526
0.309,1.0,8.17035572519084,-3.453835114503817,-3.61456106870229,-0.03843893129771003,-0.02411145038167936,0.012717557251908138
0.31,1.0,8.1704106870229,-3.4537622137404584,-3.6145973282442747,-0.0384026717557253,-0.0241213740458015,0.012806106870228748
0.311,1.0,8.170465648854961,-3.4536893129770996,-3.6146335877862596,-0.03836641221374057,-0.024131297709923637,0.012894656488549358
0.312,1.0,8.170520610687023,-3.4536164122137407,-3.614669847328244,-0.03833015267175583,-0.02414122137404577,0.012983206106869968
0.313,1.0,8.170575572519082,-3.453543511450382,-3.614706106870229,-0.0382938931297711,-0.02415114503816791,0.013071755725190579
0.314,1.0,8.170630534351144,-3.453470610687023,-3.6147423664122136,-0.03825763358778637,-0.024161068702290046,0.01316030534351119
0.315,1.0,8.170685496183205,-3.4533977099236646,-3.6147786259541985,-0.038221374045801636,-0.024170992366412184,0.0132488549618318
0.316,1.0,8.170740458015267,-3.4533248091603057,-3.614814885496183,-0.038185114503816904,-0.024180916030534322,0.013337404580152411
0.317,1.0,8.170795419847327,-3.453251908396947,-3.614851145038168,-0.03814885496183217,-0.02419083969465646,0.013425954198473021
0.318,1.0,8.170850381679388,-3.453179007633588,-3.6148874045801525,-0.038112595419847434,-0.024200763358778597,0.013514503816793632
0.319,1.0,8.17090534351145,-3.453106106870229,-3.6149236641221374,-0.0380763358778627,-0.024210687022900735,0.013603053435114244
0.32,1.0,8.170960305343511,-3.4530332061068703,-3.614959923664122,-0.03804007633587797,-0.024220610687022873,0.013691603053434854
0.321,1.0,8.171015267175571,-3.452960305343512,-3.614996183206107,-0.03800381679389324,-0.02423053435114501,0.013780152671755464
0.322,1.0,8.171070229007633,-3.452887404580153,-3.6150324427480918,-0.03796755725190851,-0.024240458015267148,0.013868702290076074
0.323,1.0,8.171125190839694,-3.452814503816794,-3.6150687022900763,-0.037931297709923775,-0.024250381679389282,0.013957251908396685
0.324,1.0,8.171180152671754,-3.4527416030534352,-3.615104961832061,-0.037895038167939044,-0.02426030534351142,0.014045801526717297
0.325,1.0,8.171235114503816,-3.4526687022900764,-3.6151412213740457,-0.037858778625954305,-0.024270229007633558,0.014134351145037907
0.326,1.0,8.171290076335877,-3.452595801526718,-3.6151774809160306,-0.03782251908396957,-0.024280152671755695,0.014222900763358517
0.327,1.0,8.171345038167939,-3.452522900763359,-3.615213740458015,-0.03778625954198484,-0.024290076335877833,0.014311450381679127
0.328,1.0,8.171399999999998,-3.4524500000000002,-3.61525,-0.03775000000000011,-0.02429999999999997,0.014399999999999738
0.329,1.0,8.17145496183206,-3.4523770992366414,-3.6152862595419846,-0.03771374045801538,-0.02430992366412211,0.01448854961832035
0.33,1.0,8.171509923664122,-3.4523041984732825,-3.6153225190839695,-0.03767748091603064,-0.024319847328244246,0.01457709923664096
0.331,1.0,8.171564885496183,-3.452231297709924,-3.615358778625954,-0.03764122137404591,-0.024329770992366384,0.01466564885496157
0.332,1.0,8.171619847328243,-3.4521583969465652,-3.615395038167939,-0.037604961832061176,-0.024339694656488522,0.01475419847328218
0.333,1.0,8.171674809160304,-3.4520854961832064,-3.6154312977099234,-0.037568702290076444,-0.02434961832061066,0.01484274809160279
0.334,1.0,8.171729770992366,-3.4520125954198475,-3.6154675572519084,-0.03753244274809171,-0.024359541984732794,0.014931297709923403
0.335,1.0,8.171784732824428,-3.4519396946564886,-3.615503816793893,-0.03749618320610698,-0.02436946564885493,0.015019847328244013
0.336,1.0,8.171839694656487,-3.45186679389313,-3.615540076335878,-0.03745992366412225,-0.02437938931297707,0.015108396946564623
0.337,1.0,8.171894656488549,-3.4517938931297714,-3.6155763358778628,-0.03742366412213752,-0.024389312977099207,0.015196946564885233
0.338,1.0,8.17194961832061,-3.4517209923664125,-3.6156125954198473,-0.03738740458015278,-0.024399236641221345,0.015285496183205844
0.339,1.0,8.17200458015267,-3.4516480916030536,-3.615648854961832,-0.03735114503816805,-0.024409160305343482,0.015374045801526456
0.34,1.0,8.172059541984732,-3.4515751908396948,-3.6156851145038167,-0.037314885496183316,-0.02441908396946562,0.015462595419847066
0.341,1.0,8.172114503816793,-3.451502290076336,-3.6157213740458016,-0.037278625954198584,-0.024429007633587758,0.015551145038167676
0.342,1.0,8.172169465648855,-3.4514293893129775,-3.615757633587786,-0.03724236641221385,-0.024438931297709895,0.015639694656488286
0.343,1.0,8.172224427480915,-3.4513564885496186,-3.615793893129771,-0.037206106870229114,-0.024448854961832033,0.015728244274808897
0.34400000000000003,1.0,8.172279389312976,-3.4512835877862598,-3.6158301526717556,-0.03716984732824438,-0.02445877862595417,0.015816793893129507
0.34500000000000003,1.0,8.172334351145038,-3.451210687022901,-3.6158664122137405,-0.03713358778625965,-0.024468702290076305,0.015905343511450117
0.34600000000000003,1.0,8.1723893129771,-3.451137786259542,-3.615902671755725,-0.03709732824427492,-0.024478625954198443,0.015993893129770727
0.34700000000000003,1.0,8.172444274809159,-3.4510648854961836,-3.61593893129771,-0.03706106870229019,-0.02448854961832058,0.016082442748091338
0.34800000000000003,1.0,8.17249923664122,-3.4509919847328248,-3.6159751908396944,-0.037024809160305455,-0.02449847328244272,0.016170992366411948
0.34900000000000003,1.0,8.172554198473282,-3.450919083969466,-3.6160114503816794,-0.036988549618320724,-0.024508396946564856,0.01625954198473256
0.35000000000000003,1.0,8.172609160305342,-3.450846183206107,-3.6160477099236643,-0.036952290076335985,-0.024518320610686994,0.016348091603053172
0.35100000000000003,1.0,8.172664122137403,-3.450773282442748,-3.616083969465649,-0.03691603053435125,-0.02452824427480913,0.016436641221373782
0.352,1.0,8.172719083969465,-3.4507003816793893,-3.6161202290076337,-0.03687977099236652,-0.02453816793893127,0.016525190839694386
0.353,1.0,8.172774045801527,-3.450627480916031,-3.6161564885496182,-0.03684351145038179,-0.024548091603053407,0.016613740458014996
0.354,1.0,8.172829007633586,-3.450554580152672,-3.616192748091603,-0.03680725190839706,-0.024558015267175545,0.01670229007633561
0.355,1.0,8.172883969465648,-3.450481679389313,-3.6162290076335877,-0.036770992366412326,-0.02456793893129768,0.01679083969465622
0.356,1.0,8.17293893129771,-3.4504087786259543,-3.6162652671755726,-0.036734732824427595,-0.024577862595419817,0.01687938931297683
0.357,1.0,8.172993893129771,-3.4503358778625954,-3.616301526717557,-0.036698473282442856,-0.024587786259541954,0.01696793893129744
0.358,1.0,8.17304885496183,-3.450262977099237,-3.616337786259542,-0.036662213740458124,-0.024597709923664092,0.01705648854961805
0.359,1.0,8.173103816793892,-3.450190076335878,-3.6163740458015265,-0.03662595419847339,-0.02460763358778623,0.01714503816793866
0.36,1.0,8.173158778625954,-3.4501171755725193,-3.6164103053435115,-0.03658969465648866,-0.024617557251908367,0.01723358778625927
0.361,1.0,8.173213740458014,-3.4500442748091604,-3.616446564885496,-0.03655343511450393,-0.024627480916030505,0.01732213740457988
0.362,1.0,8.173268702290075,-3.4499713740458016,-3.616482824427481,-0.0365171755725192,-0.024637404580152643,0.01741068702290049
0.363,1.0,8.173323664122137,-3.449898473282443,-3.6165190839694654,-0.036480916030534466,-0.02464732824427478,0.017499236641221102
0.364,1.0,8.173378625954198,-3.4498255725190843,-3.6165553435114504,-0.03644465648854973,-0.02465725190839692,0.017587786259541716
0.365,1.0,8.173433587786258,-3.4497526717557254,-3.6165916030534353,-0.036408396946564996,-0.024667175572519056,0.017676335877862326
0.366,1.0,8.17348854961832,-3.4496797709923666,-3.61662786259542,-0.036372137404580264,-0.02467709923664119,0.017764885496182936
0.367,1.0,8.173543511450381,-3.4496068702290077,-3.6166641221374047,-0.03633587786259553,-0.024687022900763328,0.017853435114503546
0.368,1.0,8.173598473282443,-3.449533969465649,-3.6167003816793892,-0.0362996183206108,-0.024696946564885466,0.017941984732824157
0.369,1.0,8.173653435114502,-3.4494610687022904,-3.616736641221374,-0.03626335877862607,-0.024706870229007603,0.018030534351144767
0.37,1.0,8.173708396946564,-3.4493881679389315,-3.6167729007633587,-0.03622709923664133,-0.02471679389312974,0.018119083969465377
0.371,1.0,8.173763358778626,-3.4493152671755727,-3.6168091603053436,-0.0361908396946566,-0.02472671755725188,0.018207633587785987
0.372,1.0,8.173818320610685,-3.449242366412214,-3.616845419847328,-0.03615458015267187,-0.024736641221374017,0.018296183206106598
0.373,1.0,8.173873282442747,-3.449169465648855,-3.616881679389313,-0.036118320610687135,-0.024746564885496154,0.018384732824427208
0.374,1.0,8.173928244274808,-3.4490965648854965,-3.6169179389312975,-0.036082061068702403,-0.024756488549618292,0.01847328244274782
0.375,1.0,8.17398320610687,-3.4490236641221377,-3.6169541984732825,-0.03604580152671767,-0.02476641221374043,0.018561832061068432
0.376,1.0,8.17403816793893,-3.448950763358779,-3.616990458015267,-0.03600954198473294,-0.024776335877862567,0.018650381679389042
0.377,1.0,8.174093129770991,-3.44887786259542,-3.617026717557252,-0.0359732824427482,-0.0247862595419847,0.018738931297709652
0.378,1.0,8.174148091603053,-3.448804961832061,-3.6170629770992364,-0.03593702290076347,-0.02479618320610684,0.018827480916030263
0.379,1.0,8.174203053435114,-3.4487320610687027,-3.6170992366412213,-0.03590076335877874,-0.024806106870228977,0.018916030534350873
0.38,1.0,8.174258015267174,-3.448659160305344,-3.6171354961832063,-0.035864503816794006,-0.024816030534351115,0.019004580152671483
0.381,1.0,8.174312977099236,-3.448586259541985,-3.617171755725191,-0.035828244274809275,-0.024825954198473252,0.019093129770992093
0.382,1.0,8.174367938931297,-3.448513358778626,-3.6172080152671757,-0.035791984732824536,-0.02483587786259539,0.019181679389312707
0.383,1.0,8.174422900763359,-3.448440458015267,-3.61724427480916,-0.035755725190839804,-0.024845801526717528,0.019270229007633317
0.384,1.0,8.174477862595419,-3.4483675572519084,-3.617280534351145,-0.03571946564885507,-0.024855725190839666,0.019358778625953928
0.385,1.0,8.17453282442748,-3.44829465648855,-3.6173167938931297,-0.03568320610687034,-0.024865648854961803,0.019447328244274538
0.386,1.0,8.174587786259542,-3.448221755725191,-3.6173530534351146,-0.03564694656488561,-0.02487557251908394,0.019535877862595148
0.387,1.0,8.174642748091602,-3.448148854961832,-3.617389312977099,-0.03561068702290088,-0.02488549618320608,0.01962442748091576
0.388,1.0,8.174697709923663,-3.4480759541984733,-3.617425572519084,-0.035574427480916146,-0.024895419847328213,0.01971297709923637
0.389,1.0,8.174752671755725,-3.4480030534351145,-3.6174618320610685,-0.03553816793893141,-0.02490534351145035,0.01980152671755698
0.39,1.0,8.174807633587786,-3.447930152671756,-3.6174980916030535,-0.035501908396946676,-0.02491526717557249,0.01989007633587759
0.391,1.0,8.174862595419846,-3.447857251908397,-3.617534351145038,-0.035465648854961944,-0.024925190839694626,0.0199786259541982
0.392,1.0,8.174917557251907,-3.4477843511450383,-3.617570610687023,-0.03542938931297721,-0.024935114503816764,0.020067175572518813
0.393,1.0,8.174972519083969,-3.4477114503816795,-3.6176068702290074,-0.03539312977099248,-0.0249450381679389,0.020155725190839423
0.394,1.0,8.17502748091603,-3.4476385496183206,-3.6176431297709923,-0.03535687022900775,-0.02495496183206104,0.020244274809160034
0.395,1.0,8.17508244274809,-3.447565648854962,-3.6176793893129773,-0.03532061068702301,-0.024964885496183177,0.020332824427480644
0.396,1.0,8.175137404580152,-3.4474927480916033,-3.6177156488549618,-0.03528435114503828,-0.024974809160305315,0.020421374045801254
0.397,1.0,8.175192366412213,-3.4474198473282445,-3.6177519083969467,-0.03524809160305355,-0.024984732824427452,0.020509923664121864
0.398,1.0,8.175247328244273,-3.4473469465648856,-3.617788167938931,-0.035211832061068815,-0.024994656488549587,0.020598473282442475
0.399,1.0,8.175302290076335,-3.4472740458015267,-3.617824427480916,-0.03517557251908408,-0.025004580152671728,0.020687022900763085
0.4,1.0,8.175357251908396,-3.447201145038168,-3.6178606870229006,-0.03513931297709935,-0.025014503816793862,0.020775572519083695
0.401,1.0,8.175412213740458,-3.4471282442748095,-3.6178969465648856,-0.03510305343511462,-0.025024427480916,0.020864122137404306
0.402,1.0,8.175467175572518,-3.4470553435114506,-3.61793320610687,-0.03506679389312988,-0.025034351145038138,0.02095267175572492
0.403,1.0,8.17552213740458,-3.4469824427480917,-3.617969465648855,-0.03503053435114515,-0.025044274809160275,0.02104122137404553
0.404,1.0,8.17557709923664,-3.446909541984733,-3.6180057251908395,-0.03499427480916042,-0.025054198473282413,0.02112977099236614
0.405,1.0,8.175632061068702,-3.446836641221374,-3.6180419847328245,-0.034958015267175686,-0.02506412213740455,0.02121832061068675
0.406,1.0,8.175687022900762,-3.4467637404580156,-3.618078244274809,-0.034921755725190955,-0.02507404580152669,0.02130687022900736
0.40700000000000003,1.0,8.175741984732824,-3.4466908396946567,-3.618114503816794,-0.034885496183206216,-0.025083969465648826,0.02139541984732797
0.40800000000000003,1.0,8.175796946564885,-3.446617938931298,-3.6181507633587784,-0.034849236641221484,-0.025093893129770964,0.02148396946564858
0.40900000000000003,1.0,8.175851908396945,-3.446545038167939,-3.6181870229007633,-0.03481297709923675,-0.0251038167938931,0.02157251908396919
0.41000000000000003,1.0,8.175906870229007,-3.44647213740458,-3.6182232824427483,-0.03477671755725202,-0.02511374045801524,0.0216610687022898
0.41100000000000003,1.0,8.175961832061068,-3.4463992366412217,-3.6182595419847328,-0.03474045801526729,-0.025123664122137374,0.02174961832061041
0.41200000000000003,1.0,8.17601679389313,-3.446326335877863,-3.6182958015267177,-0.03470419847328256,-0.02513358778625951,0.021838167938931025
0.41300000000000003,1.0,8.17607175572519,-3.446253435114504,-3.618332061068702,-0.034667938931297826,-0.02514351145038165,0.021926717557251636
0.41400000000000003,1.0,8.176126717557251,-3.446180534351145,-3.618368320610687,-0.034631679389313094,-0.025153435114503787,0.022015267175572246
0.41500000000000004,1.0,8.176181679389313,-3.4461076335877863,-3.6184045801526716,-0.034595419847328356,-0.025163358778625924,0.022103816793892856
0.41600000000000004,1.0,8.176236641221374,-3.4460347328244274,-3.6184408396946566,-0.034559160305343624,-0.025173282442748062,0.022192366412213466
0.417,1.0,8.176291603053434,-3.445961832061069,-3.618477099236641,-0.03452290076335889,-0.0251832061068702,0.022280916030534073
0.418,1.0,8.176346564885495,-3.44588893129771,-3.618513358778626,-0.03448664122137416,-0.025193129770992338,0.022369465648854683
0.419,1.0,8.176401526717557,-3.4458160305343513,-3.6185496183206105,-0.03445038167938943,-0.025203053435114475,0.022458015267175294
0.42,1.0,8.176456488549617,-3.4457431297709924,-3.6185858778625954,-0.0344141221374047,-0.02521297709923661,0.022546564885495904
0.421,1.0,8.176511450381678,-3.4456702290076335,-3.61862213740458,-0.03437786259541996,-0.025222900763358747,0.022635114503816514
0.422,1.0,8.17656641221374,-3.445597328244275,-3.618658396946565,-0.03434160305343523,-0.025232824427480885,0.022723664122137124
0.423,1.0,8.176621374045801,-3.4455244274809163,-3.61869465648855,-0.034305343511450495,-0.025242748091603023,0.022812213740457735
0.424,1.0,8.176676335877861,-3.4454515267175574,-3.6187309160305343,-0.03426908396946576,-0.02525267175572516,0.022900763358778345
0.425,1.0,8.176731297709923,-3.4453786259541985,-3.6187671755725193,-0.03423282442748103,-0.025262595419847298,0.022989312977098955
0.426,1.0,8.176786259541984,-3.4453057251908397,-3.6188034351145038,-0.0341965648854963,-0.025272519083969436,0.02307786259541957
0.427,1.0,8.176841221374046,-3.4452328244274812,-3.6188396946564887,-0.03416030534351157,-0.025282442748091574,0.02316641221374018
0.428,1.0,8.176896183206106,-3.4451599236641224,-3.618875954198473,-0.03412404580152684,-0.02529236641221371,0.02325496183206079
0.429,1.0,8.176951145038167,-3.4450870229007635,-3.618912213740458,-0.0340877862595421,-0.02530229007633585,0.0233435114503814
0.43,1.0,8.177006106870229,-3.4450141221374047,-3.6189484732824426,-0.034051526717557366,-0.025312213740457987,0.02343206106870201
0.431,1.0,8.177061068702288,-3.444941221374046,-3.6189847328244276,-0.034015267175572635,-0.02532213740458012,0.02352061068702262
0.432,1.0,8.17711603053435,-3.444868320610687,-3.619020992366412,-0.0339790076335879,-0.02533206106870226,0.02360916030534323
0.433,1.0,8.177170992366412,-3.4447954198473285,-3.619057251908397,-0.03394274809160317,-0.025341984732824396,0.02369770992366384
0.434,1.0,8.177225954198473,-3.4447225190839696,-3.6190935114503815,-0.03390648854961843,-0.025351908396946534,0.02378625954198445
0.435,1.0,8.177280916030533,-3.444649618320611,-3.6191297709923664,-0.0338702290076337,-0.025361832061068672,0.02387480916030506
0.436,1.0,8.177335877862594,-3.444576717557252,-3.619166030534351,-0.03383396946564897,-0.02537175572519081,0.02396335877862567
0.437,1.0,8.177390839694656,-3.444503816793893,-3.619202290076336,-0.03379770992366424,-0.025381679389312947,0.024051908396946285
0.438,1.0,8.177445801526718,-3.4444309160305346,-3.619238549618321,-0.033761450381679506,-0.025391603053435085,0.024140458015266895
0.439,1.0,8.177500763358777,-3.4443580152671758,-3.6192748091603053,-0.033725190839694774,-0.025401526717557223,0.024229007633587506
0.44,1.0,8.177555725190839,-3.444285114503817,-3.6193110687022902,-0.03368893129771004,-0.02541145038167936,0.024317557251908116
0.441,1.0,8.1776106870229,-3.444212213740458,-3.6193473282442747,-0.03365267175572531,-0.025421374045801498,0.024406106870228726
0.442,1.0,8.177665648854962,-3.444139312977099,-3.6193835877862597,-0.03361641221374057,-0.025431297709923632,0.024494656488549336
0.443,1.0,8.177720610687022,-3.4440664122137408,-3.619419847328244,-0.03358015267175584,-0.02544122137404577,0.024583206106869947
0.444,1.0,8.177775572519083,-3.443993511450382,-3.619456106870229,-0.03354389312977111,-0.025451145038167908,0.024671755725190557
0.445,1.0,8.177830534351145,-3.443920610687023,-3.6194923664122136,-0.03350763358778638,-0.025461068702290045,0.024760305343511167
0.446,1.0,8.177885496183205,-3.443847709923664,-3.6195286259541986,-0.03347137404580164,-0.025470992366412183,0.024848854961831777
0.447,1.0,8.177940458015266,-3.4437748091603053,-3.619564885496183,-0.03343511450381691,-0.02548091603053432,0.02493740458015239
0.448,1.0,8.177995419847328,-3.4437019083969465,-3.619601145038168,-0.033398854961832175,-0.02549083969465646,0.025025954198473
0.449,1.0,8.17805038167939,-3.443629007633588,-3.6196374045801525,-0.03336259541984744,-0.025500763358778596,0.025114503816793612
0.45,1.0,8.178105343511449,-3.443556106870229,-3.6196736641221374,-0.03332633587786271,-0.025510687022900734,0.025203053435114222
0.451,1.0,8.17816030534351,-3.4434832061068703,-3.619709923664122,-0.03329007633587798,-0.025520610687022872,0.025291603053434832
0.452,1.0,8.178215267175572,-3.4434103053435114,-3.619746183206107,-0.03325381679389325,-0.02553053435114501,0.025380152671755443
0.453,1.0,8.178270229007634,-3.4433374045801526,-3.619782442748092,-0.03321755725190852,-0.025540458015267144,0.025468702290076053
0.454,1.0,8.178325190839693,-3.443264503816794,-3.6198187022900763,-0.03318129770992378,-0.02555038167938928,0.025557251908396663
0.455,1.0,8.178380152671755,-3.4431916030534353,-3.6198549618320612,-0.033145038167939046,-0.02556030534351142,0.025645801526717273
0.456,1.0,8.178435114503817,-3.4431187022900764,-3.6198912213740457,-0.033108778625954315,-0.025570229007633557,0.025734351145037884
0.457,1.0,8.178490076335876,-3.4430458015267176,-3.6199274809160307,-0.03307251908396958,-0.025580152671755695,0.025822900763358497
0.458,1.0,8.178545038167938,-3.4429729007633587,-3.619963740458015,-0.03303625954198485,-0.025590076335877832,0.025911450381679108
0.459,1.0,8.1786,-3.4429000000000003,-3.62,-0.03300000000000011,-0.02559999999999997,0.025999999999999718
0.46,1.0,8.178624489795917,-3.4428877551020407,-3.6200244897959184,-0.03299795918367348,-0.025597448979591847,0.026001530612244892
0.461,1.0,8.178648979591836,-3.4428755102040816,-3.6200489795918367,-0.032995918367346944,-0.025594897959183682,0.02600306122448979
0.462,1.0,8.178673469387755,-3.4428632653061224,-3.620073469387755,-0.032993877551020415,-0.02559234693877552,0.02600459183673469
0.463,1.0,8.178697959183673,-3.4428510204081633,-3.6200979591836737,-0.032991836734693886,-0.025589795918367356,0.026006122448979586
0.464,1.0,8.178722448979592,-3.442838775510204,-3.620122448979592,-0.03298979591836736,-0.02558724489795919,0.026007653061224482
0.465,1.0,8.17874693877551,-3.442826530612245,-3.6201469387755103,-0.03298775510204082,-0.02558469387755103,0.026009183673469383
0.466,1.0,8.178771428571428,-3.4428142857142854,-3.6201714285714286,-0.03298571428571429,-0.025582142857142866,0.02601071428571428
0.467,1.0,8.178795918367346,-3.4428020408163262,-3.620195918367347,-0.03298367346938776,-0.025579591836734705,0.026012244897959176
0.468,1.0,8.178820408163265,-3.442789795918367,-3.620220408163265,-0.032981632653061234,-0.02557704081632654,0.026013775510204076
0.46900000000000003,1.0,8.178844897959182,-3.442777551020408,-3.620244897959184,-0.032979591836734705,-0.025574489795918375,0.026015306122448973
0.47000000000000003,1.0,8.178869387755102,-3.442765306122449,-3.620269387755102,-0.03297755102040817,-0.025571938775510214,0.026016836734693873
0.47100000000000003,1.0,8.178893877551019,-3.4427530612244897,-3.6202938775510205,-0.03297551020408164,-0.02556938775510205,0.02601836734693877
0.47200000000000003,1.0,8.178918367346938,-3.4427408163265305,-3.620318367346939,-0.03297346938775511,-0.025566836734693888,0.026019897959183667
0.47300000000000003,1.0,8.178942857142857,-3.4427285714285714,-3.620342857142857,-0.03297142857142858,-0.025564285714285723,0.026021428571428567
0.47400000000000003,1.0,8.178967346938775,-3.442716326530612,-3.6203673469387754,-0.032969387755102046,-0.02556173469387756,0.026022959183673464
0.47500000000000003,1.0,8.178991836734694,-3.442704081632653,-3.620391836734694,-0.03296734693877552,-0.025559183673469398,0.02602448979591836
0.47600000000000003,1.0,8.179016326530611,-3.442691836734694,-3.6204163265306124,-0.03296530612244899,-0.025556632653061233,0.02602602040816326
0.47700000000000004,1.0,8.17904081632653,-3.4426795918367348,-3.6204408163265307,-0.03296326530612246,-0.02555408163265307,0.026027551020408157
0.47800000000000004,1.0,8.179065306122448,-3.442667346938775,-3.620465306122449,-0.03296122448979592,-0.025551530612244907,0.026029081632653054
0.47900000000000004,1.0,8.179089795918367,-3.442655102040816,-3.6204897959183673,-0.032959183673469394,-0.025548979591836742,0.026030612244897954
0.48,1.0,8.179114285714284,-3.442642857142857,-3.6205142857142856,-0.032957142857142865,-0.02554642857142858,0.02603214285714285
0.481,1.0,8.179138775510204,-3.4426306122448977,-3.6205387755102043,-0.032955102040816336,-0.025543877551020416,0.026033673469387748
0.482,1.0,8.179163265306121,-3.4426183673469386,-3.6205632653061226,-0.0329530612244898,-0.025541326530612255,0.026035204081632648
0.483,1.0,8.17918775510204,-3.4426061224489795,-3.620587755102041,-0.03295102040816327,-0.02553877551020409,0.026036734693877545
0.484,1.0,8.17921224489796,-3.4425938775510203,-3.620612244897959,-0.03294897959183674,-0.025536224489795926,0.026038265306122445
0.485,1.0,8.179236734693877,-3.442581632653061,-3.6206367346938775,-0.032946938775510214,-0.025533673469387765,0.02603979591836734
0.486,1.0,8.179261224489796,-3.442569387755102,-3.6206612244897958,-0.03294489795918368,-0.0255311224489796,0.026041326530612238
0.487,1.0,8.179285714285713,-3.442557142857143,-3.6206857142857145,-0.03294285714285715,-0.02552857142857144,0.02604285714285714
0.488,1.0,8.179310204081633,-3.4425448979591837,-3.620710204081633,-0.03294081632653062,-0.025526020408163274,0.026044387755102035
0.489,1.0,8.17933469387755,-3.4425326530612246,-3.620734693877551,-0.03293877551020409,-0.02552346938775511,0.026045918367346932
0.49,1.0,8.17935918367347,-3.442520408163265,-3.6207591836734694,-0.032936734693877555,-0.025520918367346948,0.026047448979591832
0.491,1.0,8.179383673469387,-3.442508163265306,-3.6207836734693877,-0.032934693877551026,-0.025518367346938783,0.02604897959183673
0.492,1.0,8.179408163265306,-3.4424959183673467,-3.620808163265306,-0.0329326530612245,-0.025515816326530622,0.026050510204081626
0.493,1.0,8.179432653061223,-3.4424836734693876,-3.6208326530612247,-0.03293061224489797,-0.025513265306122457,0.026052040816326526
0.494,1.0,8.179457142857142,-3.4424714285714284,-3.620857142857143,-0.03292857142857144,-0.025510714285714293,0.026053571428571422
0.495,1.0,8.179481632653061,-3.4424591836734693,-3.6208816326530613,-0.0329265306122449,-0.02550816326530613,0.026055102040816323
0.496,1.0,8.179506122448979,-3.44244693877551,-3.6209061224489796,-0.032924489795918374,-0.025505612244897967,0.02605663265306122
0.497,1.0,8.179530612244898,-3.442434693877551,-3.620930612244898,-0.032922448979591845,-0.025503061224489806,0.026058163265306116
0.498,1.0,8.179555102040815,-3.442422448979592,-3.620955102040816,-0.032920408163265316,-0.02550051020408164,0.026059693877551016
0.499,1.0,8.179579591836735,-3.4424102040816327,-3.620979591836735,-0.03291836734693878,-0.025497959183673476,0.026061224489795913
0.5,1.0,8.179604081632652,-3.4423979591836735,-3.621004081632653,-0.03291632653061225,-0.025495408163265315,0.02606275510204081
0.501,1.0,8.179628571428571,-3.4423857142857144,-3.6210285714285715,-0.03291428571428572,-0.02549285714285715,0.02606428571428571
0.502,1.0,8.179653061224489,-3.442373469387755,-3.6210530612244898,-0.03291224489795919,-0.02549030612244899,0.026065816326530607
0.503,1.0,8.179677551020408,-3.4423612244897956,-3.621077551020408,-0.03291020408163266,-0.025487755102040825,0.026067346938775503
0.504,1.0,8.179702040816325,-3.4423489795918365,-3.6211020408163264,-0.03290816326530613,-0.02548520408163266,0.026068877551020404
0.505,1.0,8.179726530612244,-3.4423367346938774,-3.621126530612245,-0.0329061224489796,-0.0254826530612245,0.0260704081632653
0.506,1.0,8.179751020408164,-3.442324489795918,-3.6211510204081634,-0.03290408163265307,-0.025480102040816334,0.026071938775510197
0.507,1.0,8.179775510204081,-3.442312244897959,-3.6211755102040817,-0.032902040816326535,-0.025477551020408173,0.026073469387755097
0.508,1.0,8.1798,-3.4423,-3.6212,-0.032900000000000006,-0.025475000000000008,0.026074999999999994
0.509,1.0,8.179824489795918,-3.4422877551020408,-3.6212244897959183,-0.03289795918367348,-0.025472448979591843,0.026076530612244894
0.51,1.0,8.179848979591837,-3.4422755102040816,-3.6212489795918366,-0.03289591836734695,-0.025469897959183682,0.02607806122448979
0.511,1.0,8.179873469387754,-3.4422632653061225,-3.6212734693877553,-0.03289387755102041,-0.025467346938775517,0.026079591836734688
0.512,1.0,8.179897959183673,-3.4422510204081633,-3.6212979591836736,-0.03289183673469388,-0.025464795918367356,0.026081122448979588
0.513,1.0,8.17992244897959,-3.442238775510204,-3.621322448979592,-0.032889795918367354,-0.02546224489795919,0.026082653061224485
0.514,1.0,8.17994693877551,-3.4422265306122446,-3.62134693877551,-0.032887755102040825,-0.025459693877551027,0.02608418367346938
0.515,1.0,8.179971428571427,-3.4422142857142854,-3.6213714285714285,-0.03288571428571429,-0.025457142857142866,0.02608571428571428
0.516,1.0,8.179995918367347,-3.4422020408163263,-3.6213959183673468,-0.03288367346938776,-0.0254545918367347,0.026087244897959178
0.517,1.0,8.180020408163264,-3.442189795918367,-3.6214204081632655,-0.03288163265306123,-0.02545204081632654,0.026088775510204075
0.518,1.0,8.180044897959183,-3.442177551020408,-3.621444897959184,-0.0328795918367347,-0.025449489795918375,0.026090306122448975
0.519,1.0,8.180069387755102,-3.442165306122449,-3.621469387755102,-0.03287755102040817,-0.02544693877551021,0.026091836734693872
0.52,1.0,8.18009387755102,-3.4421530612244897,-3.6214938775510204,-0.03287551020408164,-0.02544438775510205,0.026093367346938772
0.521,1.0,8.180118367346939,-3.4421408163265306,-3.6215183673469387,-0.03287346938775511,-0.025441836734693885,0.02609489795918367
0.522,1.0,8.180142857142856,-3.4421285714285714,-3.621542857142857,-0.03287142857142858,-0.025439285714285723,0.026096428571428566
0.523,1.0,8.180167346938775,-3.4421163265306123,-3.6215673469387757,-0.03286938775510205,-0.02543673469387756,0.026097959183673466
0.524,1.0,8.180191836734693,-3.442104081632653,-3.621591836734694,-0.032867346938775514,-0.025434183673469394,0.026099489795918362
0.525,1.0,8.180216326530612,-3.442091836734694,-3.6216163265306123,-0.032865306122448985,-0.025431632653061233,0.02610102040816326
0.526,1.0,8.18024081632653,-3.4420795918367344,-3.6216408163265306,-0.032863265306122456,-0.025429081632653068,0.02610255102040816
0.527,1.0,8.180265306122449,-3.4420673469387753,-3.621665306122449,-0.03286122448979593,-0.025426530612244907,0.026104081632653056
0.528,1.0,8.180289795918366,-3.442055102040816,-3.621689795918367,-0.03285918367346939,-0.025423979591836742,0.026105612244897953
0.529,1.0,8.180314285714285,-3.442042857142857,-3.621714285714286,-0.03285714285714286,-0.025421428571428577,0.026107142857142853
0.53,1.0,8.180338775510204,-3.442030612244898,-3.621738775510204,-0.032855102040816334,-0.025418877551020416,0.02610867346938775
0.531,1.0,8.180363265306122,-3.4420183673469387,-3.6217632653061225,-0.032853061224489805,-0.02541632653061225,0.026110204081632647
0.532,1.0,8.180387755102041,-3.4420061224489795,-3.6217877551020408,-0.03285102040816327,-0.02541377551020409,0.026111734693877547
0.533,1.0,8.180412244897958,-3.4419938775510204,-3.621812244897959,-0.03284897959183674,-0.025411224489795926,0.026113265306122443
0.534,1.0,8.180436734693878,-3.4419816326530612,-3.6218367346938773,-0.03284693877551021,-0.02540867346938776,0.026114795918367344
0.535,1.0,8.180461224489795,-3.441969387755102,-3.621861224489796,-0.03284489795918368,-0.0254061224489796,0.02611632653061224
0.536,1.0,8.180485714285714,-3.441957142857143,-3.6218857142857144,-0.032842857142857146,-0.025403571428571435,0.026117857142857137
0.537,1.0,8.180510204081632,-3.4419448979591833,-3.6219102040816327,-0.03284081632653062,-0.025401020408163274,0.026119387755102037
0.538,1.0,8.18053469387755,-3.441932653061224,-3.621934693877551,-0.03283877551020409,-0.02539846938775511,0.026120918367346934
0.539,1.0,8.180559183673468,-3.441920408163265,-3.6219591836734693,-0.03283673469387756,-0.025395918367346944,0.02612244897959183
0.54,1.0,8.180583673469387,-3.441908163265306,-3.621983673469388,-0.03283469387755102,-0.025393367346938783,0.02612397959183673
0.541,1.0,8.180608163265306,-3.4418959183673468,-3.6220081632653063,-0.032832653061224494,-0.02539081632653062,0.026125510204081628
0.542,1.0,8.180632653061224,-3.4418836734693876,-3.6220326530612246,-0.032830612244897965,-0.025388265306122457,0.026127040816326524
0.543,1.0,8.180657142857143,-3.4418714285714285,-3.622057142857143,-0.032828571428571436,-0.025385714285714293,0.026128571428571425
0.544,1.0,8.18068163265306,-3.4418591836734693,-3.622081632653061,-0.0328265306122449,-0.025383163265306128,0.02613010204081632
0.545,1.0,8.18070612244898,-3.44184693877551,-3.6221061224489794,-0.03282448979591837,-0.025380612244897967,0.026131632653061218
0.546,1.0,8.180730612244897,-3.441834693877551,-3.622130612244898,-0.03282244897959184,-0.025378061224489802,0.02613316326530612
0.547,1.0,8.180755102040816,-3.441822448979592,-3.6221551020408165,-0.03282040816326531,-0.02537551020408164,0.026134693877551015
0.548,1.0,8.180779591836734,-3.4418102040816327,-3.6221795918367348,-0.032818367346938784,-0.025372959183673476,0.026136224489795915
0.549,1.0,8.180804081632653,-3.441797959183673,-3.622204081632653,-0.03281632653061225,-0.02537040816326531,0.026137755102040812
0.55,1.0,8.18082857142857,-3.441785714285714,-3.6222285714285714,-0.03281428571428572,-0.02536785714285715,0.02613928571428571
0.551,1.0,8.18085306122449,-3.441773469387755,-3.6222530612244896,-0.03281224489795919,-0.025365306122448986,0.02614081632653061
0.552,1.0,8.180877551020409,-3.4417612244897957,-3.6222775510204084,-0.03281020408163266,-0.025362755102040824,0.026142346938775506
0.553,1.0,8.180902040816326,-3.4417489795918366,-3.6223020408163267,-0.032808163265306126,-0.02536020408163266,0.026143877551020402
0.554,1.0,8.180926530612245,-3.4417367346938774,-3.622326530612245,-0.0328061224489796,-0.025357653061224495,0.026145408163265303
0.555,1.0,8.180951020408163,-3.4417244897959183,-3.6223510204081633,-0.03280408163265307,-0.025355102040816334,0.0261469387755102
0.556,1.0,8.180975510204082,-3.441712244897959,-3.6223755102040816,-0.03280204081632654,-0.02535255102040817,0.026148469387755096
0.557,1.0,8.181,-3.4417,-3.6224,-0.0328,-0.025350000000000008,0.026149999999999996
0.558,1.0,8.181024489795918,-3.441687755102041,-3.6224244897959186,-0.032797959183673474,-0.025347448979591843,0.026151530612244893
0.559,1.0,8.181048979591836,-3.4416755102040817,-3.622448979591837,-0.032795918367346945,-0.02534489795918368,0.026153061224489793
0.56,1.0,8.181073469387755,-3.4416632653061225,-3.622473469387755,-0.032793877551020416,-0.025342346938775517,0.02615459183673469
0.561,1.0,8.181097959183672,-3.441651020408163,-3.6224979591836735,-0.03279183673469388,-0.025339795918367353,0.026156122448979587
0.562,1.0,8.181122448979592,-3.441638775510204,-3.6225224489795917,-0.03278979591836735,-0.02533724489795919,0.026157653061224487
0.5630000000000001,1.0,8.181146938775509,-3.4416265306122447,-3.62254693877551,-0.03278775510204082,-0.025334693877551027,0.026159183673469383
0.5640000000000001,1.0,8.181171428571428,-3.4416142857142855,-3.6225714285714288,-0.03278571428571429,-0.025332142857142862,0.02616071428571428
0.5650000000000001,1.0,8.181195918367347,-3.4416020408163264,-3.622595918367347,-0.03278367346938776,-0.0253295918367347,0.02616224489795918
0.5660000000000001,1.0,8.181220408163265,-3.4415897959183672,-3.6226204081632654,-0.03278163265306123,-0.025327040816326536,0.026163775510204077
0.5670000000000001,1.0,8.181244897959184,-3.441577551020408,-3.6226448979591837,-0.0327795918367347,-0.025324489795918375,0.026165306122448974
0.5680000000000001,1.0,8.181269387755101,-3.441565306122449,-3.622669387755102,-0.03277755102040817,-0.02532193877551021,0.026166836734693874
0.5690000000000001,1.0,8.18129387755102,-3.44155306122449,-3.6226938775510202,-0.032775510204081634,-0.025319387755102046,0.02616836734693877
0.5700000000000001,1.0,8.181318367346938,-3.4415408163265306,-3.622718367346939,-0.032773469387755105,-0.025316836734693884,0.026169897959183668
0.5710000000000001,1.0,8.181342857142857,-3.4415285714285715,-3.6227428571428573,-0.032771428571428576,-0.02531428571428572,0.026171428571428568
0.5720000000000001,1.0,8.181367346938774,-3.4415163265306123,-3.6227673469387756,-0.03276938775510205,-0.02531173469387756,0.026172959183673464
0.5730000000000001,1.0,8.181391836734694,-3.4415040816326528,-3.622791836734694,-0.03276734693877552,-0.025309183673469394,0.026174489795918365
0.5740000000000001,1.0,8.181416326530611,-3.4414918367346936,-3.622816326530612,-0.03276530612244898,-0.02530663265306123,0.02617602040816326
0.5750000000000001,1.0,8.18144081632653,-3.4414795918367345,-3.6228408163265304,-0.032763265306122454,-0.025304081632653068,0.026177551020408158
0.5760000000000001,1.0,8.18146530612245,-3.4414673469387753,-3.622865306122449,-0.032761224489795925,-0.025301530612244903,0.02617908163265306
0.577,1.0,8.181489795918367,-3.441455102040816,-3.6228897959183675,-0.032759183673469396,-0.025298979591836742,0.026180612244897955
0.578,1.0,8.181514285714286,-3.441442857142857,-3.6229142857142858,-0.03275714285714286,-0.025296428571428577,0.026182142857142852
0.579,1.0,8.181538775510203,-3.441430612244898,-3.622938775510204,-0.03275510204081633,-0.025293877551020413,0.026183673469387752
0.58,1.0,8.181563265306123,-3.4414183673469387,-3.6229632653061223,-0.0327530612244898,-0.02529132653061225,0.02618520408163265
0.581,1.0,8.18158775510204,-3.4414061224489796,-3.6229877551020406,-0.03275102040816327,-0.025288775510204087,0.026186734693877545
0.582,1.0,8.18161224489796,-3.4413938775510204,-3.6230122448979594,-0.03274897959183674,-0.025286224489795926,0.026188265306122446
0.583,1.0,8.181636734693877,-3.4413816326530613,-3.6230367346938777,-0.03274693877551021,-0.02528367346938776,0.026189795918367342
0.584,1.0,8.181661224489796,-3.441369387755102,-3.623061224489796,-0.03274489795918368,-0.025281122448979596,0.02619132653061224
0.585,1.0,8.181685714285713,-3.4413571428571426,-3.6230857142857142,-0.03274285714285715,-0.025278571428571435,0.02619285714285714
0.586,1.0,8.181710204081632,-3.4413448979591834,-3.6231102040816325,-0.032740816326530614,-0.02527602040816327,0.026194387755102036
0.587,1.0,8.181734693877551,-3.4413326530612243,-3.623134693877551,-0.032738775510204085,-0.02527346938775511,0.026195918367346936
0.588,1.0,8.181759183673469,-3.441320408163265,-3.6231591836734696,-0.032736734693877556,-0.025270918367346944,0.026197448979591833
0.589,1.0,8.181783673469388,-3.441308163265306,-3.623183673469388,-0.03273469387755103,-0.02526836734693878,0.02619897959183673
0.59,1.0,8.181808163265305,-3.441295918367347,-3.623208163265306,-0.03273265306122449,-0.02526581632653062,0.02620051020408163
0.591,1.0,8.181832653061225,-3.4412836734693877,-3.6232326530612244,-0.03273061224489796,-0.025263265306122454,0.026202040816326527
0.592,1.0,8.181857142857142,-3.4412714285714285,-3.6232571428571427,-0.03272857142857143,-0.025260714285714293,0.026203571428571423
0.593,1.0,8.181881632653061,-3.4412591836734694,-3.623281632653061,-0.032726530612244904,-0.025258163265306128,0.026205102040816323
0.594,1.0,8.181906122448979,-3.4412469387755102,-3.6233061224489798,-0.03272448979591837,-0.025255612244897963,0.02620663265306122
0.595,1.0,8.181930612244898,-3.441234693877551,-3.623330612244898,-0.03272244897959184,-0.025253061224489802,0.026208163265306117
0.596,1.0,8.181955102040815,-3.441222448979592,-3.6233551020408163,-0.03272040816326531,-0.025250510204081637,0.026209693877551017
0.597,1.0,8.181979591836734,-3.4412102040816324,-3.6233795918367346,-0.03271836734693878,-0.025247959183673476,0.026211224489795914
0.598,1.0,8.182004081632654,-3.441197959183673,-3.623404081632653,-0.03271632653061225,-0.02524540816326531,0.026212755102040814
0.599,1.0,8.182028571428571,-3.441185714285714,-3.623428571428571,-0.03271428571428572,-0.025242857142857147,0.02621428571428571
0.6,1.0,8.18205306122449,-3.441173469387755,-3.62345306122449,-0.03271224489795919,-0.025240306122448986,0.026215816326530608
0.601,1.0,8.182077551020408,-3.441161224489796,-3.6234775510204082,-0.03271020408163266,-0.02523775510204082,0.026217346938775508
0.602,1.0,8.182102040816327,-3.4411489795918366,-3.6235020408163265,-0.03270816326530613,-0.02523520408163266,0.026218877551020404
0.603,1.0,8.182126530612244,-3.4411367346938775,-3.623526530612245,-0.032706122448979594,-0.025232653061224495,0.0262204081632653
0.604,1.0,8.182151020408163,-3.4411244897959183,-3.623551020408163,-0.032704081632653065,-0.02523010204081633,0.0262219387755102
0.605,1.0,8.18217551020408,-3.441112244897959,-3.6235755102040814,-0.032702040816326536,-0.02522755102040817,0.026223469387755098
0.606,1.0,8.1822,-3.4411,-3.6236,-0.03270000000000001,-0.025225000000000004,0.026224999999999995
0.607,1.0,8.182224489795917,-3.441087755102041,-3.6236244897959184,-0.03269795918367347,-0.025222448979591843,0.026226530612244895
0.608,1.0,8.182248979591837,-3.4410755102040818,-3.6236489795918367,-0.03269591836734694,-0.02521989795918368,0.026228061224489792
0.609,1.0,8.182273469387754,-3.441063265306122,-3.623673469387755,-0.03269387755102041,-0.025217346938775514,0.02622959183673469
0.61,1.0,8.182297959183673,-3.441051020408163,-3.6236979591836733,-0.032691836734693884,-0.025214795918367353,0.02623112244897959
0.611,1.0,8.182322448979592,-3.441038775510204,-3.623722448979592,-0.03268979591836735,-0.025212244897959188,0.026232653061224485
0.612,1.0,8.18234693877551,-3.4410265306122447,-3.6237469387755104,-0.03268775510204082,-0.025209693877551027,0.026234183673469386
0.613,1.0,8.182371428571429,-3.4410142857142856,-3.6237714285714286,-0.03268571428571429,-0.025207142857142862,0.026235714285714282
0.614,1.0,8.182395918367346,-3.4410020408163264,-3.623795918367347,-0.03268367346938776,-0.025204591836734697,0.02623724489795918
0.615,1.0,8.182420408163265,-3.4409897959183673,-3.6238204081632652,-0.032681632653061225,-0.025202040816326536,0.02623877551020408
0.616,1.0,8.182444897959183,-3.440977551020408,-3.6238448979591835,-0.032679591836734696,-0.02519948979591837,0.026240306122448976
0.617,1.0,8.182469387755102,-3.440965306122449,-3.6238693877551023,-0.03267755102040817,-0.02519693877551021,0.026241836734693873
0.618,1.0,8.18249387755102,-3.44095306122449,-3.6238938775510205,-0.03267551020408164,-0.025194387755102046,0.026243367346938773
0.619,1.0,8.182518367346939,-3.4409408163265307,-3.623918367346939,-0.0326734693877551,-0.02519183673469388,0.02624489795918367
0.62,1.0,8.182542857142856,-3.440928571428571,-3.623942857142857,-0.032671428571428573,-0.02518928571428572,0.026246428571428566
0.621,1.0,8.182567346938775,-3.440916326530612,-3.6239673469387754,-0.032669387755102045,-0.025186734693877555,0.026247959183673467
0.622,1.0,8.182591836734694,-3.440904081632653,-3.6239918367346937,-0.032667346938775516,-0.025184183673469394,0.026249489795918363
0.623,1.0,8.182616326530612,-3.4408918367346937,-3.6240163265306125,-0.03266530612244899,-0.02518163265306123,0.02625102040816326
0.624,1.0,8.182640816326531,-3.4408795918367345,-3.6240408163265307,-0.03266326530612245,-0.025179081632653064,0.02625255102040816
0.625,1.0,8.182665306122448,-3.4408673469387754,-3.624065306122449,-0.03266122448979592,-0.025176530612244903,0.026254081632653057
0.626,1.0,8.182689795918368,-3.4408551020408162,-3.6240897959183673,-0.03265918367346939,-0.02517397959183674,0.026255612244897957
0.627,1.0,8.182714285714285,-3.440842857142857,-3.6241142857142856,-0.032657142857142864,-0.025171428571428577,0.026257142857142854
0.628,1.0,8.182738775510204,-3.440830612244898,-3.624138775510204,-0.03265510204081633,-0.025168877551020413,0.02625867346938775
0.629,1.0,8.182763265306122,-3.440818367346939,-3.6241632653061226,-0.0326530612244898,-0.025166326530612248,0.02626020408163265
0.63,1.0,8.18278775510204,-3.4408061224489797,-3.624187755102041,-0.03265102040816327,-0.025163775510204087,0.026261734693877548
0.631,1.0,8.182812244897958,-3.4407938775510205,-3.6242122448979592,-0.03264897959183674,-0.025161224489795922,0.026263265306122444
0.632,1.0,8.182836734693877,-3.440781632653061,-3.6242367346938775,-0.032646938775510205,-0.02515867346938776,0.026264795918367344
0.633,1.0,8.182861224489796,-3.4407693877551018,-3.624261224489796,-0.032644897959183676,-0.025156122448979596,0.02626632653061224
0.634,1.0,8.182885714285714,-3.4407571428571426,-3.624285714285714,-0.03264285714285715,-0.02515357142857143,0.026267857142857138
0.635,1.0,8.182910204081633,-3.4407448979591835,-3.624310204081633,-0.03264081632653062,-0.02515102040816327,0.026269387755102038
0.636,1.0,8.18293469387755,-3.4407326530612243,-3.624334693877551,-0.03263877551020408,-0.025148469387755105,0.026270918367346935
0.637,1.0,8.18295918367347,-3.440720408163265,-3.6243591836734694,-0.03263673469387755,-0.025145918367346944,0.026272448979591835
0.638,1.0,8.182983673469387,-3.440708163265306,-3.6243836734693877,-0.032634693877551024,-0.02514336734693878,0.026273979591836732
0.639,1.0,8.183008163265306,-3.440695918367347,-3.624408163265306,-0.032632653061224495,-0.025140816326530615,0.02627551020408163
0.64,1.0,8.183032653061224,-3.4406836734693877,-3.6244326530612243,-0.03263061224489796,-0.025138265306122454,0.02627704081632653
0.641,1.0,8.183057142857143,-3.4406714285714286,-3.624457142857143,-0.03262857142857143,-0.02513571428571429,0.026278571428571425
0.642,1.0,8.18308163265306,-3.4406591836734695,-3.6244816326530613,-0.0326265306122449,-0.025133163265306128,0.026280102040816322
0.643,1.0,8.18310612244898,-3.4406469387755103,-3.6245061224489796,-0.03262448979591837,-0.025130612244897963,0.026281632653061222
0.644,1.0,8.183130612244899,-3.4406346938775507,-3.624530612244898,-0.03262244897959184,-0.0251280612244898,0.02628316326530612
0.645,1.0,8.183155102040816,-3.4406224489795916,-3.624555102040816,-0.03262040816326531,-0.025125510204081637,0.026284693877551016
0.646,1.0,8.183179591836735,-3.4406102040816324,-3.6245795918367345,-0.03261836734693878,-0.025122959183673473,0.026286224489795916
0.647,1.0,8.183204081632653,-3.4405979591836733,-3.6246040816326532,-0.03261632653061225,-0.02512040816326531,0.026287755102040813
0.648,1.0,8.183228571428572,-3.440585714285714,-3.6246285714285715,-0.03261428571428572,-0.025117857142857147,0.02628928571428571
0.649,1.0,8.18325306122449,-3.440573469387755,-3.62465306122449,-0.032612244897959185,-0.025115306122448982,0.02629081632653061
0.65,1.0,8.183277551020408,-3.440561224489796,-3.624677551020408,-0.032610204081632656,-0.02511275510204082,0.026292346938775506
0.651,1.0,8.183302040816326,-3.4405489795918367,-3.6247020408163264,-0.03260816326530613,-0.025110204081632656,0.026293877551020407
0.652,1.0,8.183326530612245,-3.4405367346938776,-3.6247265306122447,-0.0326061224489796,-0.025107653061224495,0.026295408163265303
0.653,1.0,8.183351020408162,-3.4405244897959184,-3.6247510204081634,-0.03260408163265306,-0.02510510204081633,0.0262969387755102
0.654,1.0,8.183375510204081,-3.4405122448979593,-3.6247755102040817,-0.03260204081632653,-0.025102551020408165,0.0262984693877551
0.655,1.0,8.183399999999999,-3.4405,-3.6248,-0.032600000000000004,-0.025100000000000004,0.026299999999999997
0.656,1.0,8.183424489795918,-3.4404877551020405,-3.6248244897959183,-0.032597959183673475,-0.02509744897959184,0.026301530612244894
0.657,1.0,8.183448979591837,-3.4404755102040814,-3.6248489795918366,-0.03259591836734694,-0.02509489795918368,0.026303061224489794
0.658,1.0,8.183473469387755,-3.4404632653061222,-3.624873469387755,-0.03259387755102041,-0.025092346938775514,0.02630459183673469
0.659,1.0,8.183497959183674,-3.440451020408163,-3.6248979591836736,-0.03259183673469388,-0.02508979591836735,0.026306122448979587
0.66,1.0,8.183522448979591,-3.440438775510204,-3.624922448979592,-0.03258979591836735,-0.025087244897959188,0.026307653061224488
0.661,1.0,8.18354693877551,-3.440426530612245,-3.62494693877551,-0.032587755102040816,-0.025084693877551023,0.026309183673469384
0.662,1.0,8.183571428571428,-3.4404142857142856,-3.6249714285714285,-0.03258571428571429,-0.025082142857142862,0.026310714285714284
0.663,1.0,8.183595918367347,-3.4404020408163265,-3.624995918367347,-0.03258367346938776,-0.025079591836734697,0.02631224489795918
0.664,1.0,8.183620408163264,-3.4403897959183674,-3.625020408163265,-0.03258163265306123,-0.025077040816326533,0.026313775510204078
0.665,1.0,8.183644897959184,-3.440377551020408,-3.625044897959184,-0.03257959183673469,-0.02507448979591837,0.026315306122448978
0.666,1.0,8.183669387755101,-3.440365306122449,-3.625069387755102,-0.032577551020408164,-0.025071938775510207,0.026316836734693875
0.667,1.0,8.18369387755102,-3.44035306122449,-3.6250938775510204,-0.032575510204081636,-0.025069387755102045,0.02631836734693877
0.668,1.0,8.18371836734694,-3.4403408163265303,-3.6251183673469387,-0.032573469387755107,-0.02506683673469388,0.026319897959183672
0.669,1.0,8.183742857142857,-3.440328571428571,-3.625142857142857,-0.03257142857142857,-0.025064285714285716,0.02632142857142857
0.67,1.0,8.183767346938776,-3.440316326530612,-3.6251673469387753,-0.03256938775510204,-0.025061734693877555,0.026322959183673465
0.671,1.0,8.183791836734693,-3.440304081632653,-3.625191836734694,-0.03256734693877551,-0.02505918367346939,0.026324489795918365
0.672,1.0,8.183816326530613,-3.4402918367346937,-3.6252163265306123,-0.032565306122448984,-0.02505663265306123,0.026326020408163262
0.673,1.0,8.18384081632653,-3.4402795918367346,-3.6252408163265306,-0.032563265306122455,-0.025054081632653064,0.02632755102040816
0.674,1.0,8.18386530612245,-3.4402673469387755,-3.625265306122449,-0.03256122448979592,-0.0250515306122449,0.02632908163265306
0.675,1.0,8.183889795918367,-3.4402551020408163,-3.625289795918367,-0.03255918367346939,-0.02504897959183674,0.026330612244897956
0.676,1.0,8.183914285714286,-3.440242857142857,-3.6253142857142855,-0.03255714285714286,-0.025046428571428574,0.026332142857142856
0.677,1.0,8.183938775510203,-3.440230612244898,-3.6253387755102042,-0.03255510204081633,-0.025043877551020412,0.026333673469387753
0.678,1.0,8.183963265306122,-3.440218367346939,-3.6253632653061225,-0.032553061224489796,-0.025041326530612248,0.02633520408163265
0.679,1.0,8.183987755102041,-3.4402061224489797,-3.625387755102041,-0.03255102040816327,-0.025038775510204083,0.02633673469387755
0.68,1.0,8.184012244897959,-3.44019387755102,-3.625412244897959,-0.03254897959183674,-0.025036224489795922,0.026338265306122446
0.681,1.0,8.184036734693878,-3.440181632653061,-3.6254367346938774,-0.03254693877551021,-0.025033673469387757,0.026339795918367343
0.682,1.0,8.184061224489795,-3.440169387755102,-3.625461224489796,-0.03254489795918367,-0.025031122448979596,0.026341326530612243
0.683,1.0,8.184085714285715,-3.4401571428571427,-3.6254857142857144,-0.032542857142857144,-0.02502857142857143,0.02634285714285714
0.684,1.0,8.184110204081632,-3.4401448979591835,-3.6255102040816327,-0.032540816326530615,-0.025026020408163267,0.026344387755102037
0.685,1.0,8.184134693877551,-3.4401326530612244,-3.625534693877551,-0.032538775510204086,-0.025023469387755105,0.026345918367346937
0.686,1.0,8.184159183673469,-3.4401204081632653,-3.6255591836734693,-0.03253673469387755,-0.02502091836734694,0.026347448979591834
0.687,1.0,8.184183673469388,-3.440108163265306,-3.6255836734693876,-0.03253469387755102,-0.02501836734693878,0.026348979591836734
0.6880000000000001,1.0,8.184208163265305,-3.440095918367347,-3.6256081632653063,-0.03253265306122449,-0.025015816326530615,0.02635051020408163
0.6890000000000001,1.0,8.184232653061224,-3.440083673469388,-3.6256326530612246,-0.03253061224489796,-0.02501326530612245,0.026352040816326527
0.6900000000000001,1.0,8.184257142857144,-3.4400714285714287,-3.625657142857143,-0.03252857142857143,-0.02501071428571429,0.026353571428571428
0.6910000000000001,1.0,8.184281632653061,-3.440059183673469,-3.625681632653061,-0.0325265306122449,-0.025008163265306124,0.026355102040816324
0.6920000000000001,1.0,8.18430612244898,-3.44004693877551,-3.6257061224489795,-0.03252448979591837,-0.025005612244897963,0.02635663265306122
0.6930000000000001,1.0,8.184330612244898,-3.440034693877551,-3.625730612244898,-0.03252244897959184,-0.0250030612244898,0.02635816326530612
0.6940000000000001,1.0,8.184355102040817,-3.4400224489795916,-3.6257551020408165,-0.032520408163265305,-0.025000510204081634,0.026359693877551018
0.6950000000000001,1.0,8.184379591836734,-3.4400102040816325,-3.625779591836735,-0.032518367346938776,-0.024997959183673472,0.026361224489795915
0.6960000000000001,1.0,8.184404081632653,-3.4399979591836733,-3.625804081632653,-0.03251632653061225,-0.024995408163265308,0.026362755102040815
0.6970000000000001,1.0,8.18442857142857,-3.439985714285714,-3.6258285714285714,-0.03251428571428572,-0.024992857142857147,0.02636428571428571
0.6980000000000001,1.0,8.18445306122449,-3.439973469387755,-3.6258530612244897,-0.03251224489795918,-0.024990306122448982,0.02636581632653061
0.6990000000000001,1.0,8.184477551020407,-3.439961224489796,-3.625877551020408,-0.03251020408163265,-0.024987755102040817,0.02636734693877551
0.7000000000000001,1.0,8.184502040816326,-3.4399489795918368,-3.6259020408163267,-0.032508163265306124,-0.024985204081632656,0.026368877551020405
0.7010000000000001,1.0,8.184526530612244,-3.4399367346938776,-3.625926530612245,-0.032506122448979595,-0.02498265306122449,0.026370408163265305
0.7020000000000001,1.0,8.184551020408163,-3.4399244897959185,-3.6259510204081633,-0.032504081632653066,-0.02498010204081633,0.026371938775510202
0.7030000000000001,1.0,8.184575510204082,-3.439912244897959,-3.6259755102040816,-0.03250204081632653,-0.024977551020408165,0.0263734693877551
0.704,1.0,8.1846,-3.4398999999999997,-3.626,-0.0325,-0.024975000000000004,0.026375
0.705,1.0,8.184624489795919,-3.4398877551020406,-3.626024489795918,-0.03249795918367347,-0.02497244897959184,0.026376530612244896
0.706,1.0,8.184648979591836,-3.4398755102040814,-3.626048979591837,-0.03249591836734694,-0.024969897959183675,0.026378061224489793
0.707,1.0,8.184673469387755,-3.4398632653061223,-3.626073469387755,-0.03249387755102041,-0.024967346938775514,0.026379591836734693
0.708,1.0,8.184697959183673,-3.439851020408163,-3.6260979591836735,-0.03249183673469388,-0.02496479591836735,0.02638112244897959
0.709,1.0,8.184722448979592,-3.439838775510204,-3.626122448979592,-0.03248979591836735,-0.024962244897959188,0.026382653061224486
0.71,1.0,8.18474693877551,-3.439826530612245,-3.62614693877551,-0.03248775510204082,-0.024959693877551023,0.026384183673469386
0.711,1.0,8.184771428571429,-3.4398142857142857,-3.6261714285714284,-0.032485714285714284,-0.02495714285714286,0.026385714285714283
0.712,1.0,8.184795918367346,-3.4398020408163266,-3.626195918367347,-0.032483673469387755,-0.024954591836734697,0.02638724489795918
0.713,1.0,8.184820408163265,-3.4397897959183674,-3.6262204081632654,-0.032481632653061226,-0.024952040816326532,0.02638877551020408
0.714,1.0,8.184844897959184,-3.4397775510204083,-3.6262448979591837,-0.0324795918367347,-0.02494948979591837,0.026390306122448977
0.715,1.0,8.184869387755102,-3.4397653061224487,-3.626269387755102,-0.03247755102040816,-0.024946938775510206,0.026391836734693877
0.716,1.0,8.184893877551021,-3.4397530612244895,-3.6262938775510203,-0.03247551020408163,-0.024944387755102042,0.026393367346938774
0.717,1.0,8.184918367346938,-3.4397408163265304,-3.6263183673469386,-0.032473469387755104,-0.02494183673469388,0.02639489795918367
0.718,1.0,8.184942857142858,-3.4397285714285712,-3.6263428571428573,-0.032471428571428575,-0.024939285714285716,0.02639642857142857
0.719,1.0,8.184967346938775,-3.439716326530612,-3.6263673469387756,-0.03246938775510204,-0.024936734693877555,0.026397959183673467
0.72,1.0,8.184991836734694,-3.439704081632653,-3.626391836734694,-0.03246734693877551,-0.02493418367346939,0.026399489795918364
0.721,1.0,8.185016326530612,-3.439691836734694,-3.626416326530612,-0.03246530612244898,-0.024931632653061225,0.026401020408163264
0.722,1.0,8.18504081632653,-3.4396795918367347,-3.6264408163265305,-0.03246326530612245,-0.024929081632653064,0.02640255102040816
0.723,1.0,8.185065306122448,-3.4396673469387755,-3.6264653061224488,-0.03246122448979592,-0.0249265306122449,0.026404081632653058
0.724,1.0,8.185089795918367,-3.4396551020408164,-3.6264897959183675,-0.03245918367346939,-0.024923979591836738,0.026405612244897958
0.725,1.0,8.185114285714286,-3.4396428571428572,-3.626514285714286,-0.03245714285714286,-0.024921428571428574,0.026407142857142855
0.726,1.0,8.185138775510204,-3.439630612244898,-3.626538775510204,-0.03245510204081633,-0.02491887755102041,0.02640867346938775
0.727,1.0,8.185163265306123,-3.4396183673469385,-3.6265632653061224,-0.0324530612244898,-0.024916326530612248,0.02641020408163265
0.728,1.0,8.18518775510204,-3.4396061224489793,-3.6265877551020407,-0.032451020408163264,-0.024913775510204083,0.02641173469387755
0.729,1.0,8.18521224489796,-3.43959387755102,-3.626612244897959,-0.032448979591836735,-0.024911224489795922,0.02641326530612245
0.73,1.0,8.185236734693877,-3.439581632653061,-3.6266367346938777,-0.032446938775510206,-0.024908673469387757,0.026414795918367345
0.731,1.0,8.185261224489796,-3.439569387755102,-3.626661224489796,-0.03244489795918368,-0.024906122448979592,0.026416326530612242
0.732,1.0,8.185285714285714,-3.4395571428571428,-3.6266857142857143,-0.03244285714285714,-0.02490357142857143,0.026417857142857142
0.733,1.0,8.185310204081633,-3.4395448979591836,-3.6267102040816326,-0.03244081632653061,-0.024901020408163266,0.02641938775510204
0.734,1.0,8.18533469387755,-3.4395326530612245,-3.626734693877551,-0.03243877551020408,-0.024898469387755105,0.026420918367346936
0.735,1.0,8.18535918367347,-3.4395204081632653,-3.626759183673469,-0.032436734693877554,-0.02489591836734694,0.026422448979591836
0.736,1.0,8.185383673469389,-3.439508163265306,-3.626783673469388,-0.03243469387755102,-0.024893367346938776,0.026423979591836733
0.737,1.0,8.185408163265306,-3.439495918367347,-3.626808163265306,-0.03243265306122449,-0.024890816326530615,0.02642551020408163
0.738,1.0,8.185432653061225,-3.439483673469388,-3.6268326530612245,-0.03243061224489796,-0.02488826530612245,0.02642704081632653
0.739,1.0,8.185457142857143,-3.4394714285714283,-3.626857142857143,-0.03242857142857143,-0.02488571428571429,0.026428571428571426
0.74,1.0,8.185481632653062,-3.439459183673469,-3.626881632653061,-0.032426530612244896,-0.024883163265306124,0.026430102040816326
0.741,1.0,8.18550612244898,-3.43944693877551,-3.6269061224489794,-0.03242448979591837,-0.02488061224489796,0.026431632653061223
0.742,1.0,8.185530612244898,-3.439434693877551,-3.626930612244898,-0.03242244897959184,-0.024878061224489798,0.02643316326530612
0.743,1.0,8.185555102040816,-3.4394224489795917,-3.6269551020408164,-0.03242040816326531,-0.024875510204081634,0.02643469387755102
0.744,1.0,8.185579591836735,-3.4394102040816326,-3.6269795918367347,-0.03241836734693877,-0.024872959183673472,0.026436224489795917
0.745,1.0,8.185604081632652,-3.4393979591836734,-3.627004081632653,-0.032416326530612244,-0.024870408163265308,0.026437755102040814
0.746,1.0,8.185628571428571,-3.4393857142857143,-3.6270285714285713,-0.032414285714285715,-0.024867857142857143,0.026439285714285714
0.747,1.0,8.185653061224489,-3.439373469387755,-3.6270530612244896,-0.032412244897959186,-0.02486530612244898,0.02644081632653061
0.748,1.0,8.185677551020408,-3.439361224489796,-3.6270775510204083,-0.03241020408163265,-0.024862755102040817,0.026442346938775507
0.749,1.0,8.185702040816327,-3.439348979591837,-3.6271020408163266,-0.03240816326530612,-0.024860204081632656,0.026443877551020407
0.75,1.0,8.185726530612245,-3.4393367346938777,-3.627126530612245,-0.03240612244897959,-0.02485765306122449,0.026445408163265304
0.751,1.0,8.185751020408164,-3.439324489795918,-3.627151020408163,-0.03240408163265306,-0.024855102040816326,0.0264469387755102
0.752,1.0,8.185775510204081,-3.439312244897959,-3.6271755102040815,-0.032402040816326534,-0.024852551020408165,0.0264484693877551
0.753,1.0,8.1858,-3.4393,-3.6271999999999998,-0.0324,-0.02485,0.026449999999999998
0.754,1.0,8.185824489795918,-3.4392877551020407,-3.6272244897959185,-0.03239795918367347,-0.02484744897959184,0.026451530612244898
0.755,1.0,8.185848979591837,-3.4392755102040815,-3.627248979591837,-0.03239591836734694,-0.024844897959183675,0.026453061224489795
0.756,1.0,8.185873469387754,-3.4392632653061224,-3.627273469387755,-0.03239387755102041,-0.02484234693877551,0.02645459183673469
0.757,1.0,8.185897959183674,-3.439251020408163,-3.6272979591836734,-0.032391836734693875,-0.02483979591836735,0.02645612244897959
0.758,1.0,8.185922448979591,-3.439238775510204,-3.6273224489795917,-0.032389795918367346,-0.024837244897959184,0.02645765306122449
0.759,1.0,8.18594693877551,-3.439226530612245,-3.6273469387755104,-0.03238775510204082,-0.024834693877551023,0.026459183673469385
0.76,1.0,8.18597142857143,-3.439214285714286,-3.6273714285714287,-0.03238571428571429,-0.024832142857142858,0.026460714285714285
0.761,1.0,8.185995918367347,-3.4392020408163266,-3.627395918367347,-0.03238367346938775,-0.024829591836734693,0.026462244897959182
0.762,1.0,8.186020408163266,-3.439189795918367,-3.6274204081632653,-0.032381632653061224,-0.024827040816326532,0.02646377551020408
0.763,1.0,8.186044897959183,-3.439177551020408,-3.6274448979591836,-0.032379591836734695,-0.024824489795918368,0.02646530612244898
0.764,1.0,8.186069387755103,-3.4391653061224488,-3.627469387755102,-0.032377551020408166,-0.024821938775510203,0.026466836734693876
0.765,1.0,8.18609387755102,-3.4391530612244896,-3.6274938775510206,-0.03237551020408163,-0.02481938775510204,0.026468367346938776
0.766,1.0,8.186118367346939,-3.4391408163265305,-3.627518367346939,-0.0323734693877551,-0.024816836734693877,0.026469897959183673
0.767,1.0,8.186142857142856,-3.4391285714285713,-3.627542857142857,-0.03237142857142857,-0.024814285714285716,0.02647142857142857
0.768,1.0,8.186167346938776,-3.439116326530612,-3.6275673469387755,-0.03236938775510204,-0.02481173469387755,0.02647295918367347
0.769,1.0,8.186191836734693,-3.439104081632653,-3.6275918367346938,-0.03236734693877551,-0.024809183673469386,0.026474489795918366
0.77,1.0,8.186216326530612,-3.439091836734694,-3.627616326530612,-0.03236530612244898,-0.024806632653061225,0.026476020408163263
0.771,1.0,8.186240816326531,-3.4390795918367347,-3.627640816326531,-0.03236326530612245,-0.02480408163265306,0.026477551020408163
0.772,1.0,8.186265306122449,-3.4390673469387756,-3.627665306122449,-0.03236122448979592,-0.0248015306122449,0.02647908163265306
0.773,1.0,8.186289795918368,-3.4390551020408164,-3.6276897959183674,-0.032359183673469384,-0.024798979591836735,0.026480612244897957
0.774,1.0,8.186314285714285,-3.439042857142857,-3.6277142857142857,-0.032357142857142855,-0.02479642857142857,0.026482142857142857
0.775,1.0,8.186338775510205,-3.4390306122448977,-3.627738775510204,-0.032355102040816326,-0.02479387755102041,0.026483673469387754
0.776,1.0,8.186363265306122,-3.4390183673469386,-3.6277632653061223,-0.0323530612244898,-0.024791326530612244,0.02648520408163265
0.777,1.0,8.186387755102041,-3.4390061224489794,-3.627787755102041,-0.03235102040816327,-0.024788775510204083,0.02648673469387755
0.778,1.0,8.186412244897959,-3.4389938775510203,-3.6278122448979593,-0.03234897959183673,-0.024786224489795918,0.026488265306122447
0.779,1.0,8.186436734693878,-3.438981632653061,-3.6278367346938776,-0.0323469387755102,-0.024783673469387753,0.026489795918367347
0.78,1.0,8.186461224489795,-3.438969387755102,-3.627861224489796,-0.032344897959183674,-0.024781122448979592,0.026491326530612244
0.781,1.0,8.186485714285714,-3.438957142857143,-3.627885714285714,-0.032342857142857145,-0.024778571428571428,0.02649285714285714
0.782,1.0,8.186510204081634,-3.4389448979591837,-3.6279102040816325,-0.03234081632653061,-0.024776020408163266,0.02649438775510204
0.783,1.0,8.186534693877551,-3.4389326530612245,-3.627934693877551,-0.03233877551020408,-0.0247734693877551,0.026495918367346938
0.784,1.0,8.18655918367347,-3.4389204081632654,-3.6279591836734695,-0.03233673469387755,-0.024770918367346937,0.026497448979591835
0.785,1.0,8.186583673469388,-3.4389081632653062,-3.6279836734693878,-0.03233469387755102,-0.024768367346938776,0.026498979591836735
0.786,1.0,8.186608163265307,-3.4388959183673466,-3.628008163265306,-0.03233265306122449,-0.02476581632653061,0.02650051020408163
0.787,1.0,8.186632653061224,-3.4388836734693875,-3.6280326530612244,-0.03233061224489796,-0.02476326530612245,0.026502040816326528
0.788,1.0,8.186657142857143,-3.4388714285714284,-3.6280571428571426,-0.03232857142857143,-0.024760714285714285,0.02650357142857143
0.789,1.0,8.18668163265306,-3.438859183673469,-3.6280816326530614,-0.0323265306122449,-0.02475816326530612,0.026505102040816325
0.79,1.0,8.18670612244898,-3.43884693877551,-3.6281061224489797,-0.032324489795918364,-0.02475561224489796,0.026506632653061225
0.791,1.0,8.186730612244897,-3.438834693877551,-3.628130612244898,-0.032322448979591835,-0.024753061224489795,0.026508163265306122
0.792,1.0,8.186755102040816,-3.4388224489795918,-3.6281551020408163,-0.032320408163265306,-0.024750510204081633,0.02650969387755102
0.793,1.0,8.186779591836734,-3.4388102040816326,-3.6281795918367346,-0.03231836734693878,-0.02474795918367347,0.02651122448979592
0.794,1.0,8.186804081632653,-3.4387979591836735,-3.628204081632653,-0.03231632653061224,-0.024745408163265304,0.026512755102040816
0.795,1.0,8.186828571428572,-3.4387857142857143,-3.6282285714285716,-0.03231428571428571,-0.024742857142857143,0.026514285714285712
0.796,1.0,8.18685306122449,-3.438773469387755,-3.62825306122449,-0.03231224489795918,-0.024740306122448978,0.026515816326530613
0.797,1.0,8.186877551020409,-3.438761224489796,-3.628277551020408,-0.032310204081632654,-0.024737755102040817,0.02651734693877551
0.798,1.0,8.186902040816326,-3.4387489795918365,-3.6283020408163265,-0.03230816326530612,-0.024735204081632652,0.026518877551020406
0.799,1.0,8.186926530612245,-3.4387367346938773,-3.6283265306122447,-0.03230612244897959,-0.024732653061224488,0.026520408163265306
0.8,1.0,8.186951020408163,-3.438724489795918,-3.628351020408163,-0.03230408163265306,-0.024730102040816326,0.026521938775510203
0.801,1.0,8.186975510204082,-3.438712244897959,-3.6283755102040818,-0.03230204081632653,-0.02472755102040816,0.0265234693877551
0.802,1.0,8.187,-3.4387,-3.6284,-0.032299999999999995,-0.024725,0.026525
0.803,1.0,8.187024489795919,-3.4386877551020407,-3.6284244897959184,-0.032297959183673466,-0.024722448979591836,0.026526530612244897
0.804,1.0,8.187048979591836,-3.4386755102040816,-3.6284489795918367,-0.03229591836734694,-0.02471989795918367,0.026528061224489797
0.805,1.0,8.187073469387755,-3.4386632653061224,-3.628473469387755,-0.03229387755102041,-0.02471734693877551,0.026529591836734694
0.806,1.0,8.187097959183674,-3.4386510204081633,-3.6284979591836732,-0.03229183673469388,-0.024714795918367345,0.02653112244897959
0.807,1.0,8.187122448979592,-3.438638775510204,-3.628522448979592,-0.032289795918367344,-0.024712244897959184,0.02653265306122449
0.808,1.0,8.187146938775511,-3.438626530612245,-3.6285469387755103,-0.032287755102040815,-0.02470969387755102,0.026534183673469387
0.809,1.0,8.187171428571428,-3.438614285714286,-3.6285714285714286,-0.032285714285714286,-0.024707142857142855,0.026535714285714284
0.81,1.0,8.187195918367348,-3.4386020408163263,-3.628595918367347,-0.03228367346938776,-0.024704591836734693,0.026537244897959184
0.811,1.0,8.187220408163265,-3.438589795918367,-3.628620408163265,-0.03228163265306122,-0.02470204081632653,0.02653877551020408
0.812,1.0,8.187244897959184,-3.438577551020408,-3.6286448979591834,-0.03227959183673469,-0.024699489795918367,0.026540306122448978
0.8130000000000001,1.0,8.187269387755101,-3.438565306122449,-3.628669387755102,-0.03227755102040816,-0.024696938775510203,0.026541836734693878
0.8140000000000001,1.0,8.18729387755102,-3.4385530612244897,-3.6286938775510205,-0.032275510204081634,-0.024694387755102038,0.026543367346938775
0.8150000000000001,1.0,8.187318367346938,-3.4385408163265305,-3.6287183673469388,-0.0322734693877551,-0.024691836734693877,0.026544897959183675
0.8160000000000001,1.0,8.187342857142857,-3.4385285714285714,-3.628742857142857,-0.03227142857142857,-0.024689285714285712,0.02654642857142857
0.8170000000000001,1.0,8.187367346938776,-3.4385163265306122,-3.6287673469387753,-0.03226938775510204,-0.02468673469387755,0.026547959183673468
0.8180000000000001,1.0,8.187391836734694,-3.438504081632653,-3.6287918367346936,-0.03226734693877551,-0.024684183673469386,0.02654948979591837
0.8190000000000001,1.0,8.187416326530613,-3.438491836734694,-3.6288163265306124,-0.032265306122448975,-0.02468163265306122,0.026551020408163265
0.8200000000000001,1.0,8.18744081632653,-3.438479591836735,-3.6288408163265307,-0.032263265306122446,-0.02467908163265306,0.026552551020408162
0.8210000000000001,1.0,8.18746530612245,-3.4384673469387756,-3.628865306122449,-0.03226122448979592,-0.024676530612244896,0.026554081632653062
0.8220000000000001,1.0,8.187489795918367,-3.438455102040816,-3.6288897959183672,-0.03225918367346939,-0.024673979591836735,0.02655561224489796
0.8230000000000001,1.0,8.187514285714286,-3.438442857142857,-3.6289142857142855,-0.03225714285714285,-0.02467142857142857,0.026557142857142856
0.8240000000000001,1.0,8.187538775510204,-3.4384306122448978,-3.628938775510204,-0.03225510204081632,-0.024668877551020405,0.026558673469387756
0.8250000000000001,1.0,8.187563265306123,-3.4384183673469386,-3.6289632653061226,-0.032253061224489794,-0.024666326530612244,0.026560204081632652
0.8260000000000001,1.0,8.18758775510204,-3.4384061224489795,-3.628987755102041,-0.032251020408163265,-0.02466377551020408,0.02656173469387755
0.8270000000000001,1.0,8.18761224489796,-3.4383938775510203,-3.629012244897959,-0.03224897959183673,-0.024661224489795918,0.02656326530612245
0.8280000000000001,1.0,8.187636734693879,-3.438381632653061,-3.6290367346938774,-0.0322469387755102,-0.024658673469387753,0.026564795918367346
0.8290000000000001,1.0,8.187661224489796,-3.438369387755102,-3.6290612244897957,-0.03224489795918367,-0.02465612244897959,0.026566326530612246
0.8300000000000001,1.0,8.187685714285715,-3.438357142857143,-3.6290857142857145,-0.03224285714285714,-0.024653571428571427,0.026567857142857143
0.8310000000000001,1.0,8.187710204081633,-3.4383448979591837,-3.6291102040816328,-0.032240816326530614,-0.024651020408163263,0.02656938775510204
0.8320000000000001,1.0,8.187734693877552,-3.4383326530612246,-3.629134693877551,-0.03223877551020408,-0.0246484693877551,0.02657091836734694
0.833,1.0,8.187759183673469,-3.438320408163265,-3.6291591836734693,-0.03223673469387755,-0.024645918367346937,0.026572448979591837
0.834,1.0,8.187783673469388,-3.438308163265306,-3.6291836734693876,-0.03223469387755102,-0.024643367346938776,0.026573979591836733
0.835,1.0,8.187808163265306,-3.4382959183673467,-3.629208163265306,-0.03223265306122449,-0.02464081632653061,0.026575510204081634
0.836,1.0,8.187832653061225,-3.4382836734693876,-3.6292326530612247,-0.032230612244897955,-0.024638265306122446,0.02657704081632653
0.837,1.0,8.187857142857142,-3.4382714285714284,-3.629257142857143,-0.032228571428571426,-0.024635714285714285,0.026578571428571427
0.838,1.0,8.187881632653061,-3.4382591836734693,-3.6292816326530613,-0.0322265306122449,-0.02463316326530612,0.026580102040816327
0.839,1.0,8.187906122448979,-3.43824693877551,-3.6293061224489795,-0.03222448979591837,-0.02463061224489796,0.026581632653061224
0.84,1.0,8.187930612244898,-3.438234693877551,-3.629330612244898,-0.03222244897959183,-0.024628061224489795,0.02658316326530612
0.841,1.0,8.187955102040817,-3.438222448979592,-3.629355102040816,-0.0322204081632653,-0.02462551020408163,0.02658469387755102
0.842,1.0,8.187979591836735,-3.4382102040816327,-3.629379591836735,-0.032218367346938774,-0.02462295918367347,0.026586224489795918
0.843,1.0,8.188004081632654,-3.4381979591836735,-3.629404081632653,-0.032216326530612245,-0.024620408163265304,0.026587755102040818
0.844,1.0,8.188028571428571,-3.4381857142857144,-3.6294285714285714,-0.03221428571428571,-0.024617857142857143,0.026589285714285715
0.845,1.0,8.18805306122449,-3.438173469387755,-3.6294530612244897,-0.03221224489795918,-0.024615306122448978,0.02659081632653061
0.846,1.0,8.188077551020408,-3.4381612244897957,-3.629477551020408,-0.03221020408163265,-0.024612755102040813,0.02659234693877551
0.847,1.0,8.188102040816327,-3.4381489795918365,-3.6295020408163263,-0.03220816326530612,-0.024610204081632652,0.026593877551020408
0.848,1.0,8.188126530612244,-3.4381367346938774,-3.629526530612245,-0.032206122448979586,-0.024607653061224487,0.026595408163265305
0.849,1.0,8.188151020408164,-3.4381244897959182,-3.6295510204081634,-0.03220408163265306,-0.024605102040816326,0.026596938775510205
0.85,1.0,8.188175510204081,-3.438112244897959,-3.6295755102040816,-0.03220204081632653,-0.02460255102040816,0.026598469387755102
0.851,1.0,8.1882,-3.4381,-3.6296,-0.0322,-0.024600000000000018,0.026599999999999988
0.852,1.0,8.188090076335877,-3.438063358778626,-3.629563358778626,-0.0322,-0.02462061068702292,0.026590076335877854
0.853,1.0,8.187980152671756,-3.4380267175572516,-3.6295267175572516,-0.0322,-0.02464122137404582,0.026580152671755716
0.854,1.0,8.187870229007634,-3.4379900763358777,-3.6294900763358777,-0.0322,-0.02466183206106872,0.02657022900763358
0.855,1.0,8.187760305343511,-3.437953435114504,-3.629453435114504,-0.0322,-0.024682442748091622,0.02656030534351144
0.856,1.0,8.18765038167939,-3.43791679389313,-3.62941679389313,-0.0322,-0.024703053435114523,0.026550381679389303
0.857,1.0,8.187540458015267,-3.4378801526717555,-3.6293801526717555,-0.0322,-0.024723664122137425,0.026540458015267165
0.858,1.0,8.187430534351146,-3.4378435114503816,-3.6293435114503816,-0.0322,-0.024744274809160322,0.026530534351145028
0.859,1.0,8.187320610687022,-3.4378068702290077,-3.6293068702290077,-0.0322,-0.024764885496183223,0.02652061068702289
0.86,1.0,8.187210687022901,-3.4377702290076333,-3.6292702290076333,-0.0322,-0.024785496183206124,0.026510687022900752
0.861,1.0,8.187100763358778,-3.4377335877862594,-3.6292335877862594,-0.0322,-0.024806106870229026,0.026500763358778615
0.862,1.0,8.186990839694657,-3.4376969465648854,-3.6291969465648855,-0.0322,-0.024826717557251927,0.026490839694656477
0.863,1.0,8.186880916030534,-3.4376603053435115,-3.6291603053435115,-0.0322,-0.024847328244274828,0.026480916030534343
0.864,1.0,8.186770992366412,-3.437623664122137,-3.629123664122137,-0.0322,-0.02486793893129773,0.026470992366412205
0.865,1.0,8.186661068702291,-3.4375870229007632,-3.6290870229007632,-0.0322,-0.02488854961832063,0.026461068702290067
0.866,1.0,8.186551145038168,-3.4375503816793893,-3.6290503816793893,-0.0322,-0.02490916030534353,0.02645114503816793
0.867,1.0,8.186441221374047,-3.4375137404580154,-3.6290137404580154,-0.0322,-0.02492977099236643,0.02644122137404579
0.868,1.0,8.186331297709923,-3.437477099236641,-3.628977099236641,-0.0322,-0.02495038167938933,0.026431297709923654
0.869,1.0,8.186221374045802,-3.437440458015267,-3.628940458015267,-0.0322,-0.02497099236641223,0.026421374045801516
0.87,1.0,8.186111450381679,-3.437403816793893,-3.628903816793893,-0.0322,-0.024991603053435132,0.02641145038167938
0.871,1.0,8.186001526717558,-3.437367175572519,-3.628867175572519,-0.0322,-0.025012213740458034,0.02640152671755724
0.872,1.0,8.185891603053435,-3.437330534351145,-3.628830534351145,-0.0322,-0.025032824427480935,0.026391603053435103
0.873,1.0,8.185781679389313,-3.437293893129771,-3.628793893129771,-0.0322,-0.025053435114503836,0.02638167938931297
0.874,1.0,8.18567175572519,-3.437257251908397,-3.628757251908397,-0.0322,-0.025074045801526737,0.02637175572519083
0.875,1.0,8.185561832061069,-3.4372206106870227,-3.6287206106870227,-0.0322,-0.025094656488549638,0.026361832061068693
0.876,1.0,8.185451908396946,-3.4371839694656487,-3.6286839694656488,-0.0322,-0.025115267175572536,0.026351908396946556
0.877,1.0,8.185341984732824,-3.437147328244275,-3.628647328244275,-0.0322,-0.025135877862595437,0.026341984732824418
0.878,1.0,8.185232061068703,-3.437110687022901,-3.628610687022901,-0.0322,-0.025156488549618338,0.02633206106870228
0.879,1.0,8.18512213740458,-3.4370740458015265,-3.6285740458015265,-0.0322,-0.02517709923664124,0.026322137404580143
0.88,1.0,8.185012213740459,-3.4370374045801526,-3.6285374045801526,-0.0322,-0.02519770992366414,0.026312213740458005
0.881,1.0,8.184902290076336,-3.4370007633587787,-3.6285007633587787,-0.0322,-0.02521832061068704,0.026302290076335867
0.882,1.0,8.184792366412214,-3.4369641221374043,-3.6284641221374043,-0.0322,-0.025238931297709943,0.02629236641221373
0.883,1.0,8.184682442748091,-3.4369274809160304,-3.6284274809160304,-0.0322,-0.025259541984732844,0.026282442748091592
0.884,1.0,8.18457251908397,-3.4368908396946565,-3.6283908396946565,-0.0322,-0.025280152671755745,0.026272519083969458
0.885,1.0,8.184462595419847,-3.4368541984732826,-3.6283541984732826,-0.0322,-0.025300763358778643,0.02626259541984732
0.886,1.0,8.184352671755725,-3.436817557251908,-3.628317557251908,-0.0322,-0.025321374045801544,0.026252671755725182
0.887,1.0,8.184242748091602,-3.4367809160305343,-3.6282809160305343,-0.0322,-0.025341984732824445,0.026242748091603044
0.888,1.0,8.184132824427481,-3.4367442748091603,-3.6282442748091603,-0.0322,-0.025362595419847346,0.026232824427480907
0.889,1.0,8.18402290076336,-3.436707633587786,-3.628207633587786,-0.0322,-0.025383206106870247,0.02622290076335877
0.89,1.0,8.183912977099236,-3.436670992366412,-3.628170992366412,-0.0322,-0.02540381679389315,0.02621297709923663
0.891,1.0,8.183803053435115,-3.436634351145038,-3.628134351145038,-0.0322,-0.02542442748091605,0.026203053435114494
0.892,1.0,8.183693129770992,-3.436597709923664,-3.628097709923664,-0.0322,-0.02544503816793895,0.026193129770992356
0.893,1.0,8.18358320610687,-3.43656106870229,-3.62806106870229,-0.0322,-0.025465648854961852,0.026183206106870218
0.894,1.0,8.183473282442748,-3.436524427480916,-3.628024427480916,-0.0322,-0.02548625954198475,0.02617328244274808
0.895,1.0,8.183363358778626,-3.436487786259542,-3.627987786259542,-0.0322,-0.02550687022900765,0.026163358778625946
0.896,1.0,8.183253435114503,-3.436451145038168,-3.627951145038168,-0.0322,-0.02552748091603055,0.02615343511450381
0.897,1.0,8.183143511450382,-3.4364145038167937,-3.6279145038167937,-0.0322,-0.025548091603053453,0.02614351145038167
0.898,1.0,8.183033587786259,-3.4363778625954198,-3.6278778625954198,-0.0322,-0.025568702290076354,0.026133587786259533
0.899,1.0,8.182923664122137,-3.436341221374046,-3.627841221374046,-0.0322,-0.025589312977099255,0.026123664122137395
0.9,1.0,8.182813740458016,-3.4363045801526715,-3.6278045801526715,-0.0322,-0.025609923664122156,0.026113740458015258
0.901,1.0,8.182703816793893,-3.4362679389312976,-3.6277679389312976,-0.0322,-0.025630534351145057,0.02610381679389312
0.902,1.0,8.182593893129772,-3.4362312977099236,-3.6277312977099236,-0.0322,-0.02565114503816796,0.026093893129770982
0.903,1.0,8.182483969465649,-3.4361946564885497,-3.6276946564885497,-0.0322,-0.025671755725190856,0.026083969465648844
0.904,1.0,8.182374045801527,-3.4361580152671753,-3.6276580152671754,-0.0322,-0.025692366412213757,0.026074045801526707
0.905,1.0,8.182264122137404,-3.4361213740458014,-3.6276213740458014,-0.0322,-0.02571297709923666,0.026064122137404572
0.906,1.0,8.182154198473283,-3.4360847328244275,-3.6275847328244275,-0.0322,-0.02573358778625956,0.026054198473282435
0.907,1.0,8.18204427480916,-3.4360480916030536,-3.6275480916030536,-0.0322,-0.02575419847328246,0.026044274809160297
0.908,1.0,8.181934351145038,-3.436011450381679,-3.627511450381679,-0.0322,-0.025774809160305362,0.02603435114503816
0.909,1.0,8.181824427480915,-3.4359748091603053,-3.6274748091603053,-0.0322,-0.025795419847328263,0.02602442748091602
0.91,1.0,8.181714503816794,-3.4359381679389314,-3.6274381679389314,-0.0322,-0.025816030534351164,0.026014503816793884
0.911,1.0,8.181604580152671,-3.435901526717557,-3.627401526717557,-0.0322,-0.025836641221374065,0.026004580152671746
0.912,1.0,8.18149465648855,-3.435864885496183,-3.627364885496183,-0.0322,-0.025857251908396963,0.02599465648854961
0.913,1.0,8.181384732824428,-3.435828244274809,-3.627328244274809,-0.0322,-0.025877862595419864,0.02598473282442747
0.914,1.0,8.181274809160305,-3.4357916030534352,-3.6272916030534352,-0.0322,-0.025898473282442765,0.025974809160305333
0.915,1.0,8.181164885496184,-3.435754961832061,-3.627254961832061,-0.0322,-0.025919083969465666,0.025964885496183195
