Time,Sensor ID,Accel X (m/s^2),Accel Y (m/s^2),Accel Z (m/s^2),Gyro X (rad/s),Gyro Y (rad/s),Gyro Z (rad/s)
0.0,1.0,8.5186,-4.6735,3.055,-0.0755,0.0019,-0.06
0.001,1.0,8.519273437499999,-4.6726015625,3.0547,-0.075390625,0.001853125,-0.060728124999999994
0.002,1.0,8.519946874999999,-4.671703125,3.0544000000000002,-0.07528125,0.0018062500000000001,-0.06145625
0.003,1.0,8.5206203125,-4.6708046874999996,3.0541,-0.075171875,0.001759375,-0.06218437499999999
0.004,1.0,8.52129375,-4.6699062499999995,3.0538000000000003,-0.0750625,0.0017125,-0.0629125
0.005,1.0,8.5219671875,-4.669007812499999,3.0535,-0.074953125,0.0016656250000000002,-0.06364062499999999
0.006,1.0,8.522640625,-4.668109374999999,3.0532000000000004,-0.07484375,0.0016187500000000002,-0.06436874999999999
0.007,1.0,8.523314062499999,-4.6672109375,3.0529,-0.074734375,0.0015718750000000004,-0.065096875
0.008,1.0,8.523987499999999,-4.6663125,3.0526,-0.074625,0.0015250000000000003,-0.065825
0.009000000000000001,1.0,8.5246609375,-4.6654140625,3.0523000000000002,-0.074515625,0.0014781250000000003,-0.06655312499999999
0.01,1.0,8.525334375,-4.664515625,3.052,-0.07440625,0.0014312500000000004,-0.06728124999999999
0.011,1.0,8.5260078125,-4.6636171875,3.0517000000000003,-0.074296875,0.0013843750000000006,-0.06800937499999998
0.012,1.0,8.52668125,-4.66271875,3.0514,-0.0741875,0.0013375000000000006,-0.06873749999999999
0.013000000000000001,1.0,8.527354687499999,-4.6618203125,3.0511,-0.074078125,0.0012906250000000005,-0.06946562499999999
0.014,1.0,8.528028124999999,-4.660921875,3.0508,-0.07396875,0.0012437500000000005,-0.07019374999999999
0.015,1.0,8.5287015625,-4.6600234375,3.0505,-0.073859375,0.0011968750000000007,-0.070921875
0.016,1.0,8.529375,-4.6591249999999995,3.0502000000000002,-0.07375,0.0011500000000000006,-0.07164999999999999
0.017,1.0,8.5300484375,-4.6582265624999994,3.0499,-0.073640625,0.0011031250000000008,-0.07237812499999999
0.018000000000000002,1.0,8.530721875,-4.657328124999999,3.0496000000000003,-0.07353125,0.0010562500000000008,-0.07310624999999998
0.019,1.0,8.531395312499999,-4.656429687499999,3.0493,-0.073421875,0.0010093750000000007,-0.07383437499999998
0.02,1.0,8.532068749999999,-4.65553125,3.049,-0.0733125,0.0009625000000000008,-0.07456249999999999
0.021,1.0,8.5327421875,-4.6546328125,3.0487,-0.07320312500000001,0.0009156250000000009,-0.07529062499999999
0.022,1.0,8.533415625,-4.653734375,3.0484,-0.07309375,0.000868750000000001,-0.07601874999999998
0.023,1.0,8.5340890625,-4.6528359375,3.0481000000000003,-0.072984375,0.000821875000000001,-0.07674687499999998
0.024,1.0,8.5347625,-4.6519375,3.0478,-0.07287500000000001,0.000775000000000001,-0.07747499999999999
0.025,1.0,8.535435937499999,-4.6510390625,3.0475000000000003,-0.072765625,0.0007281250000000009,-0.07820312499999998
0.026000000000000002,1.0,8.536109374999999,-4.650140625,3.0472,-0.07265625,0.0006812500000000009,-0.07893124999999998
0.027,1.0,8.5367828125,-4.6492421875,3.0469,-0.07254687500000001,0.000634375000000001,-0.07965937499999998
0.028,1.0,8.53745625,-4.6483437499999996,3.0466,-0.0724375,0.0005875000000000012,-0.08038749999999997
0.029,1.0,8.5381296875,-4.6474453124999995,3.0463,-0.07232812500000001,0.0005406250000000012,-0.08111562499999998
0.03,1.0,8.538803125,-4.646546874999999,3.0460000000000003,-0.07221875,0.0004937500000000013,-0.08184374999999998
0.031,1.0,8.539476562499999,-4.645648437499999,3.0457,-0.072109375,0.0004468750000000013,-0.08257187499999998
0.032,1.0,8.540149999999999,-4.64475,3.0454000000000003,-0.07200000000000001,0.00040000000000000127,-0.08329999999999999
0.033,1.0,8.5408234375,-4.6438515625,3.0451,-0.071890625,0.0003531250000000012,-0.08402812499999998
0.034,1.0,8.541496875,-4.642953125,3.0448,-0.07178125,0.0003062500000000014,-0.08475624999999998
0.035,1.0,8.5421703125,-4.6420546875,3.0445,-0.07167187500000001,0.00025937500000000136,-0.08548437499999997
0.036000000000000004,1.0,8.54284375,-4.64115625,3.0442,-0.0715625,0.00021250000000000132,-0.08621249999999997
0.037,1.0,8.543517187499999,-4.6402578125,3.0439000000000003,-0.071453125,0.0001656250000000017,-0.08694062499999997
0.038,1.0,8.544190625,-4.639359375,3.0436,-0.07134375000000001,0.00011875000000000167,-0.08766874999999998
0.039,1.0,8.5448640625,-4.6384609375,3.0433,-0.071234375,7.187500000000163e-05,-0.08839687499999997
0.04,1.0,8.5455375,-4.6375625,3.043,-0.07112500000000001,2.5000000000001583e-05,-0.08912499999999997
0.041,1.0,8.5462109375,-4.6366640624999995,3.0427,-0.07101562500000001,-2.1874999999998458e-05,-0.08985312499999998
0.042,1.0,8.546884375,-4.6357656249999994,3.0424,-0.07090625,-6.874999999999828e-05,-0.09058124999999997
0.043000000000000003,1.0,8.5475578125,-4.634867187499999,3.0421,-0.07079687500000001,-0.00011562499999999832,-0.09130937499999997
0.044,1.0,8.54823125,-4.633968749999999,3.0418000000000003,-0.07068750000000001,-0.00016249999999999793,-0.09203749999999997
0.045,1.0,8.5489046875,-4.6330703125,3.0415,-0.070578125,-0.00020937499999999797,-0.09276562499999996
0.046,1.0,8.549578125,-4.632171875,3.0412,-0.07046875000000001,-0.000256249999999998,-0.09349374999999996
0.047,1.0,8.5502515625,-4.6312734375,3.0409,-0.070359375,-0.00030312499999999806,-0.09422187499999997
0.048,1.0,8.550925,-4.630375,3.0406,-0.07025,-0.0003499999999999981,-0.09494999999999996
0.049,1.0,8.5515984375,-4.6294765625,3.0403000000000002,-0.07014062500000001,-0.00039687499999999814,-0.09567812499999997
0.05,1.0,8.552271875,-4.628578125,3.04,-0.07003125,-0.0004437499999999982,-0.09640624999999997
0.051000000000000004,1.0,8.5529453125,-4.6276796875,3.0397000000000003,-0.06992187500000001,-0.0004906249999999982,-0.09713437499999997
0.052000000000000005,1.0,8.55361875,-4.62678125,3.0394,-0.06981250000000001,-0.0005374999999999983,-0.09786249999999996
0.053,1.0,8.5542921875,-4.6258828124999996,3.0391,-0.069703125,-0.0005843749999999979,-0.09859062499999996
0.054,1.0,8.554965625,-4.6249843749999995,3.0388,-0.06959375000000001,-0.0006312499999999979,-0.09931874999999996
0.055,1.0,8.5556390625,-4.624085937499999,3.0385,-0.06948437500000001,-0.0006781249999999975,-0.10004687499999997
0.056,1.0,8.5563125,-4.623187499999999,3.0382000000000002,-0.069375,-0.0007249999999999976,-0.10077499999999996
0.057,1.0,8.5569859375,-4.6222890625,3.0379,-0.06926562500000001,-0.0007718749999999976,-0.10150312499999997
0.058,1.0,8.557659375,-4.621390625,3.0376000000000003,-0.06915625000000002,-0.0008187499999999976,-0.10223124999999997
0.059000000000000004,1.0,8.5583328125,-4.6204921875,3.0373,-0.06904687500000001,-0.0008656249999999977,-0.10295937499999996
0.06,1.0,8.55900625,-4.61959375,3.037,-0.06893750000000001,-0.0009124999999999973,-0.10368749999999996
0.061,1.0,8.5596796875,-4.6186953125,3.0367,-0.06882812500000002,-0.0009593749999999973,-0.10441562499999996
0.062,1.0,8.560353125,-4.617796875,3.0364,-0.06871875000000001,-0.0010062499999999974,-0.10514374999999995
0.063,1.0,8.5610265625,-4.6168984375,3.0361000000000002,-0.06860937500000001,-0.0010531249999999974,-0.10587187499999995
0.064,1.0,8.5617,-4.616,3.0358,-0.0685,-0.0010999999999999975,-0.10659999999999996
0.065,1.0,8.562509230769232,-4.613716923076923,3.036169230769231,-0.06839384615384617,-0.0011384615384615378,-0.10670769230769231
0.066,1.0,8.563318461538461,-4.6114338461538456,3.0365384615384614,-0.06828769230769231,-0.0011769230769230776,-0.10681538461538462
0.067,1.0,8.564127692307693,-4.6091507692307685,3.0369076923076923,-0.06818153846153846,-0.0012153846153846175,-0.10692307692307693
0.068,1.0,8.564936923076923,-4.606867692307691,3.037276923076923,-0.06807538461538461,-0.0012538461538461573,-0.10703076923076923
0.069,1.0,8.565746153846154,-4.604584615384614,3.037646153846154,-0.06796923076923077,-0.0012923076923076972,-0.10713846153846156
0.07,1.0,8.566555384615384,-4.602301538461538,3.0380153846153846,-0.06786307692307691,-0.001330769230769237,-0.10724615384615387
0.07100000000000001,1.0,8.567364615384616,-4.600018461538461,3.0383846153846155,-0.06775692307692306,-0.0013692307692307767,-0.10735384615384617
0.07200000000000001,1.0,8.568173846153847,-4.597735384615384,3.0387538461538464,-0.06765076923076921,-0.0014076923076923166,-0.10746153846153848
0.073,1.0,8.568983076923077,-4.595452307692307,3.0391230769230773,-0.06754461538461536,-0.001446153846153856,-0.10756923076923079
0.074,1.0,8.569792307692309,-4.59316923076923,3.0394923076923077,-0.06743846153846152,-0.0014846153846153958,-0.10767692307692311
0.075,1.0,8.570601538461538,-4.590886153846153,3.0398615384615386,-0.06733230769230766,-0.0015230769230769356,-0.10778461538461542
0.076,1.0,8.57141076923077,-4.588603076923076,3.0402307692307695,-0.06722615384615381,-0.0015615384615384753,-0.10789230769230773
0.077,1.0,8.57222,-4.586319999999999,3.0406000000000004,-0.06711999999999996,-0.0016000000000000153,-0.10800000000000004
0.078,1.0,8.573029230769231,-4.584036923076922,3.040969230769231,-0.06701384615384612,-0.0016384615384615552,-0.10810769230769235
0.079,1.0,8.573838461538463,-4.581753846153845,3.0413384615384618,-0.06690769230769227,-0.001676923076923095,-0.10821538461538467
0.08,1.0,8.574647692307693,-4.579470769230768,3.0417076923076927,-0.06680153846153841,-0.0017153846153846347,-0.10832307692307698
0.081,1.0,8.575456923076924,-4.577187692307691,3.042076923076923,-0.06669538461538456,-0.0017538461538461746,-0.10843076923076929
0.082,1.0,8.576266153846154,-4.574904615384614,3.042446153846154,-0.0665892307692307,-0.0017923076923077146,-0.1085384615384616
0.083,1.0,8.577075384615386,-4.5726215384615365,3.042815384615385,-0.06648307692307687,-0.0018307692307692543,-0.10864615384615392
0.084,1.0,8.577884615384615,-4.5703384615384595,3.043184615384616,-0.06637692307692301,-0.001869230769230794,-0.10875384615384623
0.085,1.0,8.578693846153847,-4.568055384615382,3.0435538461538463,-0.06627076923076916,-0.001907692307692334,-0.10886153846153854
0.08600000000000001,1.0,8.579503076923078,-4.565772307692306,3.043923076923077,-0.06616461538461531,-0.001946153846153874,-0.10896923076923085
0.08700000000000001,1.0,8.580312307692308,-4.563489230769229,3.044292307692308,-0.06605846153846147,-0.0019846153846154136,-0.10907692307692315
0.088,1.0,8.58112153846154,-4.561206153846152,3.044661538461539,-0.06595230769230762,-0.002023076923076953,-0.10918461538461548
0.089,1.0,8.58193076923077,-4.558923076923075,3.0450307692307694,-0.06584615384615376,-0.0020615384615384927,-0.10929230769230779
0.09,1.0,8.582740000000001,-4.556639999999998,3.0454000000000003,-0.06573999999999991,-0.0021000000000000324,-0.1094000000000001
0.091,1.0,8.583549230769231,-4.554356923076921,3.0457692307692312,-0.06563384615384607,-0.0021384615384615726,-0.1095076923076924
0.092,1.0,8.584358461538462,-4.552073846153844,3.046138461538462,-0.06552769230769222,-0.0021769230769231123,-0.10961538461538471
0.093,1.0,8.585167692307692,-4.549790769230767,3.0465076923076926,-0.06542153846153836,-0.002215384615384652,-0.10972307692307703
0.094,1.0,8.585976923076924,-4.54750769230769,3.0468769230769235,-0.06531538461538451,-0.002253846153846192,-0.10983076923076934
0.095,1.0,8.586786153846155,-4.545224615384613,3.0472461538461544,-0.06520923076923066,-0.002292307692307732,-0.10993846153846165
0.096,1.0,8.587595384615385,-4.542941538461536,3.0476153846153853,-0.06510307692307682,-0.0023307692307692716,-0.11004615384615396
0.097,1.0,8.588404615384617,-4.540658461538459,3.0479846153846157,-0.06499692307692297,-0.002369230769230812,-0.11015384615384627
0.098,1.0,8.589213846153847,-4.538375384615382,3.0483538461538466,-0.06489076923076911,-0.002407692307692351,-0.11026153846153859
0.099,1.0,8.590023076923078,-4.5360923076923045,3.0487230769230775,-0.06478461538461526,-0.0024461538461538913,-0.1103692307692309
0.1,1.0,8.590832307692308,-4.5338092307692275,3.049092307692308,-0.06467846153846141,-0.002484615384615431,-0.11047692307692321
0.101,1.0,8.59164153846154,-4.531526153846151,3.049461538461539,-0.06457230769230757,-0.0025230769230769707,-0.11058461538461552
0.10200000000000001,1.0,8.592450769230771,-4.529243076923074,3.04983076923077,-0.06446615384615371,-0.002561538461538511,-0.11069230769230784
0.10300000000000001,1.0,8.59326,-4.526959999999997,3.0502000000000007,-0.06435999999999986,-0.00260000000000005,-0.11080000000000015
0.10400000000000001,1.0,8.594069230769232,-4.52467692307692,3.050569230769231,-0.06425384615384601,-0.0026384615384615904,-0.11090769230769246
0.105,1.0,8.594878461538462,-4.522393846153843,3.050938461538462,-0.06414769230769217,-0.0026769230769231296,-0.11101538461538477
0.106,1.0,8.595687692307694,-4.520110769230766,3.051307692307693,-0.06404153846153832,-0.0027153846153846694,-0.11112307692307707
0.107,1.0,8.596496923076923,-4.517827692307689,3.051676923076924,-0.06393538461538446,-0.002753846153846209,-0.1112307692307694
0.108,1.0,8.597306153846155,-4.515544615384612,3.0520461538461543,-0.06382923076923061,-0.0027923076923077493,-0.1113384615384617
0.109,1.0,8.598115384615387,-4.513261538461535,3.052415384615385,-0.06372307692307677,-0.002830769230769289,-0.11144615384615401
0.11,1.0,8.598924615384616,-4.510978461538458,3.052784615384616,-0.06361692307692292,-0.0028692307692308287,-0.11155384615384632
0.111,1.0,8.599733846153848,-4.508695384615381,3.053153846153847,-0.06351076923076907,-0.002907692307692369,-0.11166153846153863
0.112,1.0,8.600543076923078,-4.506412307692304,3.0535230769230775,-0.06340461538461521,-0.002946153846153908,-0.11176923076923095
0.113,1.0,8.60135230769231,-4.504129230769227,3.0538923076923083,-0.06329846153846136,-0.0029846153846154484,-0.11187692307692326
0.114,1.0,8.602161538461539,-4.50184615384615,3.0542615384615392,-0.06319230769230752,-0.003023076923076988,-0.11198461538461557
0.115,1.0,8.60297076923077,-4.499563076923073,3.05463076923077,-0.06308615384615367,-0.003061538461538528,-0.11209230769230788
0.116,1.0,8.603780000000002,-4.4972799999999955,3.0550000000000006,-0.06297999999999981,-0.003100000000000068,-0.11220000000000019
0.117,1.0,8.604589230769232,-4.494996923076919,3.0553692307692315,-0.06287384615384596,-0.0031384615384616073,-0.11230769230769251
0.11800000000000001,1.0,8.605398461538464,-4.492713846153842,3.0557384615384624,-0.06276769230769211,-0.0031769230769231474,-0.11241538461538482
0.11900000000000001,1.0,8.606207692307693,-4.490430769230765,3.056107692307693,-0.06266153846153827,-0.0032153846153846876,-0.11252307692307713
0.12,1.0,8.607016923076925,-4.488147692307688,3.0564769230769238,-0.06255538461538442,-0.003253846153846227,-0.11263076923076944
0.121,1.0,8.607826153846155,-4.485864615384611,3.0568461538461547,-0.06244923076923057,-0.003292307692307766,-0.11273846153846176
0.122,1.0,8.608635384615386,-4.483581538461534,3.0572153846153856,-0.062343076923076717,-0.0033307692307693064,-0.11284615384615407
0.123,1.0,8.609444615384618,-4.481298461538457,3.057584615384616,-0.06223692307692287,-0.0033692307692308465,-0.11295384615384638
0.124,1.0,8.610253846153848,-4.47901538461538,3.057953846153847,-0.06213076923076902,-0.003407692307692386,-0.11306153846153869
0.125,1.0,8.61106307692308,-4.476732307692303,3.058323076923078,-0.062024615384615164,-0.003446153846153926,-0.113169230769231
0.126,1.0,8.611872307692309,-4.474449230769226,3.0586923076923087,-0.06191846153846132,-0.0034846153846154653,-0.11327692307692332
0.127,1.0,8.61268153846154,-4.472166153846149,3.059061538461539,-0.061812307692307465,-0.0035230769230770054,-0.11338461538461563
0.128,1.0,8.61349076923077,-4.469883076923072,3.05943076923077,-0.06170615384615362,-0.0035615384615385456,-0.11349230769230793
0.129,1.0,8.614300000000002,-4.467599999999997,3.0598,-0.06160000000000019,-0.003599999999999855,-0.11359999999999906
0.13,1.0,8.615243939393942,-4.466366666666664,3.059727272727273,-0.06168333333333352,-0.0035348484848483426,-0.1131742424242415
0.131,1.0,8.616187878787882,-4.4651333333333305,3.059654545454545,-0.061766666666666845,-0.0034696969696968298,-0.11274848484848395
0.132,1.0,8.61713181818182,-4.463899999999997,3.059581818181818,-0.061850000000000176,-0.003404545454545317,-0.11232272727272638
0.133,1.0,8.61807575757576,-4.462666666666664,3.0595090909090907,-0.06193333333333351,-0.0033393939393938045,-0.11189696969696881
0.134,1.0,8.6190196969697,-4.461433333333331,3.0594363636363635,-0.06201666666666684,-0.0032742424242422916,-0.11147121212121126
0.135,1.0,8.619963636363638,-4.460199999999998,3.0593636363636363,-0.06210000000000017,-0.0032090909090907787,-0.1110454545454537
0.136,1.0,8.620907575757577,-4.458966666666664,3.059290909090909,-0.0621833333333335,-0.003143939393939266,-0.11061969696969615
0.137,1.0,8.621851515151517,-4.457733333333331,3.059218181818182,-0.06226666666666683,-0.0030787878787877534,-0.11019393939393858
0.138,1.0,8.622795454545457,-4.4564999999999975,3.0591454545454546,-0.06235000000000016,-0.0030136363636362406,-0.10976818181818102
0.139,1.0,8.623739393939395,-4.455266666666664,3.0590727272727274,-0.06243333333333349,-0.0029484848484847277,-0.10934242424242346
0.14,1.0,8.624683333333335,-4.454033333333331,3.059,-0.06251666666666682,-0.0028833333333332153,-0.1089166666666659
0.14100000000000001,1.0,8.625627272727275,-4.452799999999998,3.0589272727272725,-0.06260000000000016,-0.0028181818181817024,-0.10849090909090835
0.14200000000000002,1.0,8.626571212121213,-4.451566666666665,3.0588545454545453,-0.06268333333333348,-0.0027530303030301895,-0.10806515151515078
0.14300000000000002,1.0,8.627515151515153,-4.450333333333331,3.058781818181818,-0.06276666666666682,-0.0026878787878786767,-0.10763939393939322
0.14400000000000002,1.0,8.628459090909093,-4.449099999999998,3.058709090909091,-0.06285000000000014,-0.002622727272727164,-0.10721363636363566
0.145,1.0,8.629403030303031,-4.447866666666664,3.0586363636363636,-0.06293333333333347,-0.002557575757575653,-0.10678787878787811
0.146,1.0,8.630346969696971,-4.446633333333331,3.0585636363636364,-0.0630166666666668,-0.0024924242424241407,-0.10636212121212055
0.147,1.0,8.631290909090911,-4.4453999999999985,3.058490909090909,-0.06310000000000013,-0.002427272727272628,-0.105936363636363
0.148,1.0,8.63223484848485,-4.444166666666665,3.058418181818182,-0.06318333333333347,-0.002362121212121115,-0.10551060606060543
0.149,1.0,8.633178787878789,-4.442933333333332,3.0583454545454547,-0.06326666666666679,-0.002296969696969602,-0.10508484848484788
0.15,1.0,8.634122727272729,-4.441699999999998,3.0582727272727275,-0.06335000000000013,-0.0022318181818180892,-0.10465909090909031
0.151,1.0,8.635066666666669,-4.440466666666665,3.0582,-0.06343333333333345,-0.002166666666666577,-0.10423333333333275
0.152,1.0,8.636010606060607,-4.439233333333331,3.0581272727272726,-0.06351666666666678,-0.002101515151515064,-0.1038075757575752
0.153,1.0,8.636954545454547,-4.437999999999998,3.0580545454545454,-0.06360000000000011,-0.0020363636363635515,-0.10338181818181763
0.154,1.0,8.637898484848487,-4.436766666666665,3.057981818181818,-0.06368333333333344,-0.0019712121212120386,-0.10295606060606008
0.155,1.0,8.638842424242426,-4.435533333333332,3.057909090909091,-0.06376666666666678,-0.0019060606060605258,-0.10253030303030251
0.156,1.0,8.639786363636365,-4.434299999999999,3.0578363636363637,-0.0638500000000001,-0.001840909090909013,-0.10210454545454495
0.157,1.0,8.640730303030304,-4.433066666666665,3.0577636363636365,-0.06393333333333344,-0.0017757575757575003,-0.1016787878787874
0.158,1.0,8.641674242424244,-4.431833333333332,3.0576909090909092,-0.06401666666666676,-0.0017106060606059876,-0.10125303030302983
0.159,1.0,8.642618181818182,-4.430599999999998,3.057618181818182,-0.0641000000000001,-0.0016454545454544747,-0.10082727272727227
0.16,1.0,8.643562121212122,-4.429366666666665,3.057545454545455,-0.06418333333333343,-0.0015803030303029619,-0.10040151515151471
0.161,1.0,8.644506060606062,-4.428133333333332,3.057472727272727,-0.06426666666666675,-0.0015151515151514494,-0.09997575757575715
0.162,1.0,8.645450000000002,-4.426899999999999,3.0574,-0.06435000000000009,-0.0014499999999999366,-0.0995499999999996
0.163,1.0,8.64639393939394,-4.4256666666666655,3.0573272727272727,-0.06443333333333341,-0.0013848484848484237,-0.09912424242424203
0.164,1.0,8.64733787878788,-4.424433333333332,3.0572545454545454,-0.06451666666666675,-0.0013196969696969109,-0.09869848484848448
0.165,1.0,8.64828181818182,-4.423199999999999,3.0571818181818182,-0.06460000000000007,-0.0012545454545453984,-0.09827272727272691
0.166,1.0,8.649225757575758,-4.421966666666665,3.057109090909091,-0.06468333333333341,-0.0011893939393938856,-0.09784696969696935
0.167,1.0,8.650169696969698,-4.420733333333332,3.0570363636363638,-0.06476666666666674,-0.0011242424242423727,-0.0974212121212118
0.168,1.0,8.651113636363638,-4.419499999999999,3.0569636363636365,-0.06485000000000007,-0.0010590909090908603,-0.09699545454545423
0.169,1.0,8.652057575757576,-4.418266666666666,3.0568909090909093,-0.0649333333333334,-0.0009939393939393474,-0.09656969696969667
0.17,1.0,8.653001515151516,-4.4170333333333325,3.056818181818182,-0.06501666666666672,-0.0009287878787878345,-0.09614393939393912
0.171,1.0,8.653945454545456,-4.415799999999999,3.0567454545454544,-0.06510000000000006,-0.0008636363636363217,-0.09571818181818155
0.17200000000000001,1.0,8.654889393939396,-4.414566666666666,3.056672727272727,-0.06518333333333338,-0.0007984848484848092,-0.09529242424242398
0.17300000000000001,1.0,8.655833333333334,-4.413333333333332,3.0566,-0.06526666666666672,-0.0007333333333332964,-0.09486666666666643
0.17400000000000002,1.0,8.656777272727274,-4.412099999999999,3.0565272727272728,-0.06535000000000005,-0.0006681818181817835,-0.09444090909090888
0.17500000000000002,1.0,8.657721212121213,-4.410866666666665,3.0564545454545455,-0.06543333333333338,-0.0006030303030302711,-0.09401515151515132
0.176,1.0,8.658665151515152,-4.409633333333333,3.0563818181818183,-0.06551666666666671,-0.0005378787878787599,-0.09358939393939376
0.177,1.0,8.659609090909091,-4.408399999999999,3.056309090909091,-0.06560000000000003,-0.0004727272727272471,-0.0931636363636362
0.178,1.0,8.660553030303031,-4.407166666666666,3.056236363636364,-0.06568333333333337,-0.00040757575757573465,-0.09273787878787865
0.179,1.0,8.661496969696971,-4.405933333333333,3.0561636363636366,-0.0657666666666667,-0.0003424242424242218,-0.09231212121212108
0.18,1.0,8.66244090909091,-4.404699999999999,3.0560909090909094,-0.06585000000000003,-0.0002772727272727089,-0.09188636363636352
0.181,1.0,8.66338484848485,-4.403466666666666,3.0560181818181817,-0.06593333333333336,-0.00021212121212119605,-0.09146060606060596
0.182,1.0,8.66432878787879,-4.402233333333333,3.0559454545454545,-0.0660166666666667,-0.00014696969696968362,-0.09103484848484841
0.183,1.0,8.665272727272727,-4.401,3.0558727272727273,-0.06610000000000002,-8.181818181817076e-05,-0.09060909090909085
0.184,1.0,8.666216666666667,-4.399766666666666,3.0558,-0.06618333333333334,-1.6666666666657892e-05,-0.09018333333333328
0.185,1.0,8.667160606060607,-4.398533333333333,3.055727272727273,-0.06626666666666668,4.848484848485454e-05,-0.08975757575757573
0.186,1.0,8.668104545454545,-4.3972999999999995,3.0556545454545456,-0.06635,0.0001136363636363674,-0.08933181818181817
0.187,1.0,8.669048484848485,-4.396066666666666,3.0555818181818184,-0.06643333333333334,0.00017878787878788027,-0.0889060606060606
0.188,1.0,8.669992424242425,-4.394833333333333,3.055509090909091,-0.06651666666666667,0.00024393939393939313,-0.08848030303030305
0.189,1.0,8.670936363636365,-4.3936,3.055436363636364,-0.0666,0.00030909090909090556,-0.08805454545454548
0.19,1.0,8.671880303030303,-4.392366666666667,3.0553636363636367,-0.06668333333333333,0.00037424242424241843,-0.08762878787878792
0.191,1.0,8.672824242424243,-4.391133333333333,3.055290909090909,-0.06676666666666667,0.0004393939393939313,-0.08720303030303037
0.192,1.0,8.673768181818183,-4.3899,3.055218181818182,-0.06684999999999999,0.0005045454545454442,-0.0867772727272728
0.193,1.0,8.67471212121212,-4.3886666666666665,3.0551454545454546,-0.06693333333333332,0.000569696969696957,-0.08635151515151525
0.194,1.0,8.67565606060606,-4.387433333333333,3.0550727272727274,-0.06701666666666665,0.000634848484848469,-0.08592575757575768
0.195,1.0,8.6766,-4.3862,3.055,-0.06709999999999998,0.0006999999999999819,-0.08550000000000013
0.196,1.0,8.6768984375,-4.3856765625,3.0553734375,-0.06719999999999998,0.000724999999999993,-0.08485937500000018
0.197,1.0,8.677196875,-4.3851531249999995,3.055746875,-0.06729999999999998,0.0007499999999999931,-0.08421875000000019
0.198,1.0,8.6774953125,-4.3846296874999995,3.0561203125,-0.06739999999999997,0.000774999999999993,-0.08357812500000018
0.199,1.0,8.677793750000001,-4.384106249999999,3.05649375,-0.06749999999999998,0.000799999999999993,-0.08293750000000018
0.2,1.0,8.6780921875,-4.383582812499999,3.0568671875,-0.06759999999999998,0.0008249999999999931,-0.08229687500000019
0.201,1.0,8.678390625,-4.383059375,3.057240625,-0.06769999999999998,0.000849999999999993,-0.08165625000000018
0.202,1.0,8.6786890625,-4.3825359375,3.0576140625,-0.06779999999999997,0.0008749999999999931,-0.08101562500000019
0.203,1.0,8.6789875,-4.3820125,3.0579875,-0.06789999999999997,0.000899999999999993,-0.08037500000000018
0.20400000000000001,1.0,8.679285937500001,-4.3814890625,3.0583609375,-0.06799999999999998,0.0009249999999999931,-0.07973437500000019
0.20500000000000002,1.0,8.679584375000001,-4.380965625,3.0587343750000002,-0.06809999999999998,0.0009499999999999931,-0.07909375000000018
0.20600000000000002,1.0,8.6798828125,-4.3804421875,3.0591078125,-0.06819999999999998,0.000974999999999993,-0.07845312500000018
0.20700000000000002,1.0,8.68018125,-4.37991875,3.05948125,-0.06829999999999997,0.000999999999999993,-0.07781250000000019
0.20800000000000002,1.0,8.6804796875,-4.3793953125,3.0598546875,-0.06839999999999997,0.001024999999999993,-0.07717187500000018
0.209,1.0,8.680778125,-4.378871875,3.060228125,-0.06849999999999998,0.0010499999999999923,-0.0765312500000002
0.21,1.0,8.681076562500001,-4.3783484375,3.0606015625,-0.06859999999999998,0.0010749999999999924,-0.0758906250000002
0.211,1.0,8.681375000000001,-4.377825,3.060975,-0.06869999999999997,0.0010999999999999925,-0.0752500000000002
0.212,1.0,8.6816734375,-4.3773015625,3.0613484375,-0.06879999999999997,0.0011249999999999923,-0.0746093750000002
0.213,1.0,8.681971875,-4.3767781249999995,3.061721875,-0.06889999999999998,0.0011499999999999924,-0.0739687500000002
0.214,1.0,8.6822703125,-4.3762546874999995,3.0620953125,-0.06899999999999998,0.0011749999999999925,-0.0733281250000002
0.215,1.0,8.68256875,-4.375731249999999,3.06246875,-0.06909999999999997,0.0011999999999999923,-0.0726875000000002
0.216,1.0,8.682867187500001,-4.375207812499999,3.0628421875,-0.06919999999999997,0.0012249999999999924,-0.0720468750000002
0.217,1.0,8.683165625,-4.374684375,3.0632156249999998,-0.06929999999999997,0.0012499999999999924,-0.0714062500000002
0.218,1.0,8.6834640625,-4.3741609375,3.0635890625,-0.06939999999999998,0.0012749999999999923,-0.07076562500000019
0.219,1.0,8.6837625,-4.3736375,3.0639625,-0.06949999999999998,0.0012999999999999924,-0.0701250000000002
0.22,1.0,8.6840609375,-4.3731140625,3.0643359375,-0.06959999999999997,0.0013249999999999924,-0.0694843750000002
0.221,1.0,8.684359375,-4.372590625,3.064709375,-0.06969999999999997,0.0013499999999999923,-0.0688437500000002
0.222,1.0,8.684657812500001,-4.3720671875,3.0650828125,-0.06979999999999997,0.0013749999999999923,-0.0682031250000002
0.223,1.0,8.68495625,-4.37154375,3.06545625,-0.06989999999999998,0.0013999999999999924,-0.06756250000000019
0.224,1.0,8.6852546875,-4.3710203125,3.0658296875,-0.06999999999999997,0.0014249999999999922,-0.0669218750000002
0.225,1.0,8.685553125,-4.370496875,3.066203125,-0.07009999999999997,0.0014499999999999923,-0.0662812500000002
0.226,1.0,8.6858515625,-4.3699734375,3.0665765625,-0.07019999999999997,0.0014749999999999924,-0.0656406250000002
0.227,1.0,8.68615,-4.36945,3.06695,-0.07029999999999997,0.0014999999999999922,-0.0650000000000002
0.228,1.0,8.686448437500001,-4.3689265624999996,3.0673234375,-0.07039999999999998,0.0015249999999999923,-0.06435937500000019
0.229,1.0,8.686746875,-4.3684031249999995,3.0676968749999998,-0.07049999999999997,0.0015499999999999924,-0.0637187500000002
0.23,1.0,8.6870453125,-4.367879687499999,3.0680703124999997,-0.07059999999999997,0.0015749999999999922,-0.0630781250000002
0.231,1.0,8.68734375,-4.367356249999999,3.06844375,-0.07069999999999997,0.0015999999999999925,-0.0624375000000002
0.232,1.0,8.6876421875,-4.366832812499999,3.0688171875,-0.07079999999999997,0.0016249999999999923,-0.061796875000000195
0.233,1.0,8.687940625,-4.366309375,3.069190625,-0.07089999999999996,0.0016499999999999922,-0.0611562500000002
0.234,1.0,8.688239062500001,-4.3657859375,3.0695640625,-0.07099999999999997,0.0016749999999999925,-0.0605156250000002
0.23500000000000001,1.0,8.6885375,-4.3652625,3.0699375,-0.07109999999999997,0.0016999999999999923,-0.05987500000000019
0.23600000000000002,1.0,8.6888359375,-4.3647390625,3.0703109375,-0.07119999999999997,0.0017249999999999922,-0.0592343750000002
0.23700000000000002,1.0,8.689134375,-4.364215625,3.070684375,-0.07129999999999997,0.0017499999999999924,-0.058593750000000194
0.23800000000000002,1.0,8.6894328125,-4.3636921875,3.0710578125,-0.07139999999999996,0.0017749999999999923,-0.057953125000000195
0.23900000000000002,1.0,8.689731250000001,-4.36316875,3.07143125,-0.07149999999999997,0.0017999999999999921,-0.0573125000000002
0.24,1.0,8.690029687500001,-4.3626453125,3.0718046875,-0.07159999999999997,0.0018249999999999916,-0.05667187500000022
0.241,1.0,8.690328125,-4.362121875,3.0721781249999998,-0.07169999999999997,0.0018499999999999918,-0.05603125000000021
0.242,1.0,8.6906265625,-4.3615984375,3.0725515624999997,-0.07179999999999996,0.0018749999999999917,-0.055390625000000214
0.243,1.0,8.690925,-4.361075,3.0729249999999997,-0.07189999999999996,0.0018999999999999915,-0.054750000000000215
0.244,1.0,8.6912234375,-4.3605515624999995,3.0732984375,-0.07199999999999997,0.0019249999999999918,-0.054109375000000216
0.245,1.0,8.691521875000001,-4.3600281249999995,3.073671875,-0.07209999999999997,0.0019499999999999917,-0.05346875000000021
0.246,1.0,8.6918203125,-4.359504687499999,3.0740453125,-0.07219999999999996,0.0019749999999999915,-0.05282812500000021
0.247,1.0,8.69211875,-4.358981249999999,3.07441875,-0.07229999999999996,0.001999999999999992,-0.05218750000000021
0.248,1.0,8.6924171875,-4.3584578125,3.0747921875,-0.07239999999999996,0.0020249999999999917,-0.051546875000000214
0.249,1.0,8.692715625,-4.357934375,3.075165625,-0.07249999999999997,0.0020499999999999915,-0.050906250000000215
0.25,1.0,8.6930140625,-4.3574109375,3.0755390625,-0.07259999999999997,0.0020749999999999918,-0.050265625000000216
0.251,1.0,8.693312500000001,-4.3568875,3.0759125,-0.07269999999999996,0.0020999999999999916,-0.04962500000000021
0.252,1.0,8.6936109375,-4.3563640625,3.0762859375,-0.07279999999999996,0.0021249999999999915,-0.04898437500000021
0.253,1.0,8.693909375,-4.355840625,3.0766593749999998,-0.07289999999999996,0.0021499999999999918,-0.04834375000000021
0.254,1.0,8.6942078125,-4.3553171875,3.0770328124999997,-0.07299999999999997,0.0021749999999999916,-0.047703125000000214
0.255,1.0,8.69450625,-4.35479375,3.0774062499999997,-0.07309999999999997,0.0021999999999999915,-0.047062500000000215
0.256,1.0,8.6948046875,-4.3542703125,3.0777796874999996,-0.07319999999999996,0.0022249999999999917,-0.04642187500000021
0.257,1.0,8.695103125000001,-4.353746875,3.078153125,-0.07329999999999996,0.0022499999999999916,-0.04578125000000021
0.258,1.0,8.6954015625,-4.3532234375,3.0785265625,-0.07339999999999997,0.0022749999999999914,-0.04514062500000021
0.259,1.0,8.6957,-4.3527,3.0789,-0.07349999999999997,0.0022999999999999917,-0.04450000000000021
0.26,1.0,8.695626562500001,-4.352923437499999,3.0786765625,-0.07358437499999997,0.0022765625000000077,-0.04399218750000017
0.261,1.0,8.695553125,-4.353146874999999,3.0784531250000002,-0.07366874999999996,0.0022531250000000077,-0.043484375000000165
0.262,1.0,8.6954796875,-4.353370312499999,3.0782296875,-0.07375312499999996,0.0022296875000000077,-0.04297656250000017
0.263,1.0,8.695406250000001,-4.35359375,3.07800625,-0.07383749999999997,0.0022062500000000077,-0.042468750000000166
0.264,1.0,8.6953328125,-4.3538171875,3.0777828125,-0.07392187499999997,0.0021828125000000077,-0.04196093750000017
0.265,1.0,8.695259375000001,-4.354040625,3.077559375,-0.07400624999999997,0.0021593750000000076,-0.04145312500000017
0.266,1.0,8.6951859375,-4.3542640624999995,3.0773359375,-0.07409062499999997,0.0021359375000000076,-0.040945312500000164
0.267,1.0,8.6951125,-4.354487499999999,3.0771125,-0.07417499999999996,0.0021125000000000076,-0.04043750000000017
0.268,1.0,8.695039062500001,-4.354710937499999,3.0768890625,-0.07425937499999997,0.0020890625000000076,-0.039929687500000165
0.269,1.0,8.694965625,-4.354934374999999,3.076665625,-0.07434374999999997,0.0020656250000000076,-0.03942187500000017
0.27,1.0,8.6948921875,-4.3551578125,3.0764421875,-0.07442812499999997,0.0020421875000000075,-0.038914062500000166
0.271,1.0,8.694818750000001,-4.35538125,3.0762187500000002,-0.07451249999999997,0.002018750000000008,-0.03840625000000017
0.272,1.0,8.6947453125,-4.3556046875,3.0759953125,-0.07459687499999997,0.001995312500000008,-0.037898437500000166
0.273,1.0,8.694671875000001,-4.3558281249999995,3.075771875,-0.07468124999999996,0.001971875000000008,-0.03739062500000016
0.274,1.0,8.6945984375,-4.356051562499999,3.0755484375,-0.07476562499999997,0.0019484375000000079,-0.03688281250000017
0.275,1.0,8.694525,-4.356274999999999,3.075325,-0.07484999999999997,0.0019250000000000079,-0.03637500000000017
0.276,1.0,8.694451562500001,-4.3564984375,3.0751015625,-0.07493437499999997,0.0019015625000000078,-0.03586718750000017
0.277,1.0,8.694378125,-4.356721875,3.074878125,-0.07501874999999997,0.0018781250000000078,-0.035359375000000165
0.278,1.0,8.6943046875,-4.3569453125,3.0746546875000003,-0.07510312499999997,0.0018546875000000078,-0.03485156250000017
0.279,1.0,8.694231250000001,-4.35716875,3.07443125,-0.07518749999999996,0.0018312500000000078,-0.034343750000000166
0.28,1.0,8.6941578125,-4.3573921874999995,3.0742078125,-0.07527187499999997,0.0018078125000000078,-0.03383593750000016
0.281,1.0,8.694084375000001,-4.357615624999999,3.073984375,-0.07535624999999997,0.0017843750000000077,-0.03332812500000017
0.28200000000000003,1.0,8.6940109375,-4.3578390625,3.0737609375,-0.07544062499999997,0.0017609375000000077,-0.03282031250000017
0.28300000000000003,1.0,8.6939375,-4.3580625,3.0735375,-0.07552499999999997,0.0017375000000000077,-0.03231250000000017
0.28400000000000003,1.0,8.693864062500001,-4.3582859375,3.0733140625,-0.07560937499999996,0.0017140625000000077,-0.031804687500000164
0.28500000000000003,1.0,8.693790625,-4.358509375,3.073090625,-0.07569374999999996,0.0016906250000000077,-0.03129687500000017
0.28600000000000003,1.0,8.6937171875,-4.3587328124999996,3.0728671875,-0.07577812499999997,0.0016671875000000076,-0.030789062500000165
0.28700000000000003,1.0,8.693643750000001,-4.358956249999999,3.07264375,-0.07586249999999997,0.0016437500000000076,-0.03028125000000017
0.28800000000000003,1.0,8.6935703125,-4.359179687499999,3.0724203125000003,-0.07594687499999997,0.0016203125000000078,-0.029773437500000166
0.289,1.0,8.693496875000001,-4.359403125,3.072196875,-0.07603124999999997,0.001596875000000009,-0.029265625000000194
0.29,1.0,8.6934234375,-4.3596265625,3.0719734375,-0.07611562499999996,0.001573437500000009,-0.028757812500000195
0.291,1.0,8.69335,-4.35985,3.07175,-0.07619999999999996,0.001550000000000009,-0.028250000000000195
0.292,1.0,8.693276562500001,-4.3600734375,3.0715265625,-0.07628437499999996,0.001526562500000009,-0.027742187500000196
0.293,1.0,8.693203125,-4.3602968749999995,3.071303125,-0.07636874999999996,0.0015031250000000092,-0.027234375000000196
0.294,1.0,8.6931296875,-4.360520312499999,3.0710796875,-0.07645312499999997,0.0014796875000000092,-0.026726562500000196
0.295,1.0,8.693056250000001,-4.36074375,3.0708562500000003,-0.07653749999999997,0.0014562500000000092,-0.026218750000000193
0.296,1.0,8.6929828125,-4.3609671875,3.0706328125,-0.07662187499999996,0.0014328125000000092,-0.025710937500000194
0.297,1.0,8.692909375000001,-4.361190625,3.070409375,-0.07670624999999996,0.0014093750000000091,-0.025203125000000194
0.298,1.0,8.6928359375,-4.3614140625,3.0701859375000002,-0.07679062499999996,0.0013859375000000091,-0.024695312500000195
0.299,1.0,8.6927625,-4.3616375,3.0699625,-0.07687499999999997,0.001362500000000009,-0.024187500000000195
0.3,1.0,8.692689062500001,-4.3618609374999995,3.0697390625,-0.07695937499999997,0.001339062500000009,-0.023679687500000195
0.301,1.0,8.692615625,-4.362084374999999,3.069515625,-0.07704374999999997,0.001315625000000009,-0.023171875000000196
0.302,1.0,8.6925421875,-4.3623078125,3.0692921875,-0.07712812499999996,0.001292187500000009,-0.022664062500000196
0.303,1.0,8.692468750000002,-4.36253125,3.06906875,-0.07721249999999996,0.001268750000000009,-0.022156250000000197
0.304,1.0,8.6923953125,-4.3627546875,3.0688453125,-0.07729687499999996,0.001245312500000009,-0.021648437500000194
0.305,1.0,8.692321875000001,-4.362978125,3.0686218750000003,-0.07738124999999997,0.001221875000000009,-0.021140625000000194
0.306,1.0,8.6922484375,-4.3632015625,3.0683984375,-0.07746562499999997,0.0011984375000000092,-0.020632812500000194
0.307,1.0,8.692175,-4.363424999999999,3.068175,-0.07754999999999997,0.0011750000000000092,-0.020125000000000195
0.308,1.0,8.692101562500001,-4.3636484375,3.0679515625000002,-0.07763437499999996,0.0011515625000000091,-0.019617187500000195
0.309,1.0,8.692028125,-4.363871875,3.067728125,-0.07771874999999996,0.0011281250000000091,-0.019109375000000196
0.31,1.0,8.6919546875,-4.3640953125,3.0675046875,-0.07780312499999996,0.001104687500000009,-0.018601562500000196
0.311,1.0,8.691881250000002,-4.36431875,3.06728125,-0.07788749999999997,0.001081250000000009,-0.018093750000000196
0.312,1.0,8.6918078125,-4.3645421875,3.0670578125,-0.07797187499999997,0.001057812500000009,-0.017585937500000193
0.313,1.0,8.691734375000001,-4.3647656249999995,3.066834375,-0.07805624999999997,0.001034375000000009,-0.017078125000000194
0.314,1.0,8.6916609375,-4.364989062499999,3.0666109375,-0.07814062499999996,0.001010937500000009,-0.016570312500000194
0.315,1.0,8.6915875,-4.3652125,3.0663875000000003,-0.07822499999999996,0.000987500000000009,-0.016062500000000195
0.316,1.0,8.691514062500001,-4.3654359375,3.0661640625,-0.07830937499999996,0.000964062500000009,-0.015554687500000195
0.317,1.0,8.691440625,-4.365659375,3.065940625,-0.07839374999999997,0.0009406250000000092,-0.015046875000000196
0.318,1.0,8.691367187500001,-4.3658828125,3.0657171875,-0.07847812499999997,0.0009171875000000091,-0.014539062500000196
0.319,1.0,8.691293750000002,-4.36610625,3.06549375,-0.07856249999999997,0.0008937500000000091,-0.014031250000000196
0.32,1.0,8.6912203125,-4.3663296874999995,3.0652703125,-0.07864687499999996,0.0008703125000000091,-0.013523437500000193
0.321,1.0,8.691146875000001,-4.366553125,3.065046875,-0.07873124999999996,0.0008468750000000091,-0.013015625000000197
0.322,1.0,8.6910734375,-4.3667765625,3.0648234375,-0.07881562499999996,0.0008234375000000091,-0.012507812500000194
0.323,1.0,8.691,-4.367,3.0646,-0.07889999999999997,0.000800000000000009,-0.012000000000000198
0.324,1.0,8.690704615384616,-4.366926153846154,3.064747692307692,-0.07893846153846153,0.0007153846153846453,-0.01187692307692312
0.325,1.0,8.690409230769232,-4.366852307692308,3.0648953846153844,-0.07897692307692307,0.0006307692307692576,-0.011753846153846193
0.326,1.0,8.690113846153848,-4.366778461538462,3.065043076923077,-0.0790153846153846,0.0005461538461538699,-0.011630769230769266
0.327,1.0,8.689818461538461,-4.366704615384616,3.065190769230769,-0.07905384615384614,0.00046153846153848224,-0.011507692307692339
0.328,1.0,8.689523076923077,-4.3666307692307695,3.0653384615384613,-0.07909230769230768,0.0003769230769230946,-0.011384615384615411
0.329,1.0,8.689227692307693,-4.3665569230769234,3.065486153846154,-0.07913076923076923,0.00029230769230770694,-0.011261538461538483
0.33,1.0,8.688932307692308,-4.3664830769230765,3.065633846153846,-0.07916923076923076,0.0002076923076923193,-0.011138461538461555
0.331,1.0,8.688636923076924,-4.36640923076923,3.0657815384615383,-0.0792076923076923,0.00012307692307693158,-0.011015384615384628
0.332,1.0,8.68834153846154,-4.366335384615384,3.0659292307692305,-0.07924615384615384,3.846153846154396e-05,-0.010892307692307701
0.333,1.0,8.688046153846154,-4.366261538461538,3.066076923076923,-0.07928461538461538,-4.615384615384377e-05,-0.010769230769230774
0.334,1.0,8.68775076923077,-4.366187692307692,3.0662246153846153,-0.07932307692307693,-0.0001307692307692314,-0.010646153846153845
0.335,1.0,8.687455384615385,-4.366113846153846,3.0663723076923075,-0.07936153846153846,-0.00021538461538461913,-0.010523076923076918
0.336,1.0,8.68716,-4.36604,3.06652,-0.0794,-0.00030000000000000675,-0.01039999999999999
0.337,1.0,8.686864615384616,-4.365966153846154,3.0666676923076923,-0.07943846153846154,-0.00038461538461539437,-0.010276923076923064
0.338,1.0,8.686569230769232,-4.365892307692308,3.0668153846153845,-0.07947692307692308,-0.000469230769230782,-0.010153846153846135
0.339,1.0,8.686273846153847,-4.365818461538462,3.0669630769230767,-0.07951538461538463,-0.0005538461538461696,-0.010030769230769208
0.34,1.0,8.685978461538461,-4.365744615384616,3.0671107692307693,-0.07955384615384616,-0.0006384615384615575,-0.00990769230769228
0.341,1.0,8.685683076923077,-4.3656707692307695,3.0672584615384615,-0.0795923076923077,-0.0007230769230769451,-0.009784615384615353
0.342,1.0,8.685387692307692,-4.365596923076923,3.0674061538461537,-0.07963076923076924,-0.0008076923076923327,-0.009661538461538426
0.343,1.0,8.685092307692308,-4.365523076923076,3.0675538461538463,-0.07966923076923078,-0.0008923076923077203,-0.0095384615384615
0.34400000000000003,1.0,8.684796923076924,-4.36544923076923,3.0677015384615385,-0.07970769230769233,-0.0009769230769231078,-0.00941538461538457
0.34500000000000003,1.0,8.68450153846154,-4.365375384615384,3.0678492307692307,-0.07974615384615386,-0.0010615384615384957,-0.009292307692307643
0.34600000000000003,1.0,8.684206153846153,-4.365301538461538,3.0679969230769233,-0.0797846153846154,-0.0011461538461538835,-0.009169230769230716
0.34700000000000003,1.0,8.683910769230769,-4.365227692307692,3.0681446153846155,-0.07982307692307694,-0.0012307692307692714,-0.009046153846153787
0.34800000000000003,1.0,8.683615384615385,-4.365153846153846,3.0682923076923077,-0.07986153846153848,-0.0013153846153846588,-0.00892307692307686
0.34900000000000003,1.0,8.68332,-4.36508,3.06844,-0.07990000000000003,-0.0014000000000000466,-0.008799999999999933
0.35000000000000003,1.0,8.683024615384616,-4.365006153846154,3.0685876923076925,-0.07993846153846156,-0.001484615384615434,-0.008676923076923006
0.35100000000000003,1.0,8.682729230769231,-4.364932307692308,3.0687353846153846,-0.0799769230769231,-0.0015692307692308219,-0.008553846153846079
0.352,1.0,8.682433846153845,-4.364858461538462,3.068883076923077,-0.08001538461538464,-0.001653846153846205,-0.008430769230769158
0.353,1.0,8.682138461538461,-4.3647846153846155,3.0690307692307695,-0.08005384615384618,-0.0017384615384615923,-0.00830769230769223
0.354,1.0,8.681843076923077,-4.364710769230769,3.0691784615384616,-0.08009230769230771,-0.0018230769230769802,-0.008184615384615302
0.355,1.0,8.681547692307692,-4.364636923076922,3.069326153846154,-0.08013076923076926,-0.0019076923076923676,-0.008061538461538375
0.356,1.0,8.681252307692308,-4.364563076923076,3.069473846153846,-0.0801692307692308,-0.0019923076923077554,-0.007938461538461446
0.357,1.0,8.680956923076923,-4.36448923076923,3.0696215384615386,-0.08020769230769234,-0.0020769230769231433,-0.00781538461538452
0.358,1.0,8.680661538461537,-4.364415384615384,3.069769230769231,-0.08024615384615387,-0.0021615384615385307,-0.007692307692307593
0.359,1.0,8.680366153846153,-4.364341538461538,3.069916923076923,-0.08028461538461541,-0.0022461538461539185,-0.007569230769230665
0.36,1.0,8.680070769230769,-4.364267692307692,3.0700646153846156,-0.08032307692307696,-0.002330769230769306,-0.007446153846153738
0.361,1.0,8.679775384615384,-4.364193846153846,3.070212307692308,-0.0803615384615385,-0.0024153846153846937,-0.00732307692307681
0.362,1.0,8.67948,-4.36412,3.07036,-0.08040000000000004,-0.0025000000000000816,-0.007199999999999883
0.363,1.0,8.679184615384615,-4.364046153846154,3.070507692307692,-0.08043846153846157,-0.002584615384615469,-0.007076923076922955
0.364,1.0,8.678889230769231,-4.363972307692308,3.070655384615385,-0.08047692307692311,-0.002669230769230857,-0.006953846153846028
0.365,1.0,8.678593846153845,-4.3638984615384615,3.070803076923077,-0.08051538461538466,-0.0027538461538462442,-0.0068307692307691
0.366,1.0,8.67829846153846,-4.363824615384615,3.070950769230769,-0.0805538461538462,-0.002838461538461632,-0.006707692307692172
0.367,1.0,8.678003076923076,-4.363750769230769,3.0710984615384618,-0.08059230769230774,-0.00292307692307702,-0.006584615384615245
0.368,1.0,8.677707692307692,-4.363676923076922,3.071246153846154,-0.08063076923076927,-0.0030076923076924073,-0.006461538461538317
0.369,1.0,8.677412307692308,-4.363603076923076,3.071393846153846,-0.08066923076923081,-0.003092307692307795,-0.00633846153846139
0.37,1.0,8.677116923076923,-4.36352923076923,3.0715415384615383,-0.08070769230769236,-0.0031769230769231826,-0.006215384615384463
0.371,1.0,8.676821538461537,-4.363455384615384,3.071689230769231,-0.0807461538461539,-0.0032615384615385704,-0.006092307692307535
0.372,1.0,8.676526153846153,-4.363381538461538,3.071836923076923,-0.08078461538461544,-0.0033461538461539582,-0.005969230769230608
0.373,1.0,8.676230769230768,-4.363307692307692,3.0719846153846153,-0.08082307692307697,-0.003430769230769346,-0.00584615384615368
0.374,1.0,8.675935384615384,-4.363233846153846,3.072132307692308,-0.08086153846153851,-0.003515384615384733,-0.005723076923076753
0.375,1.0,8.67564,-4.36316,3.07228,-0.08090000000000006,-0.003600000000000121,-0.005599999999999825
0.376,1.0,8.675344615384615,-4.363086153846154,3.0724276923076923,-0.0809384615384616,-0.0036846153846155087,-0.005476923076922898
0.377,1.0,8.675049230769229,-4.3630123076923075,3.0725753846153845,-0.08097692307692314,-0.0037692307692308966,-0.0053538461538459705
0.378,1.0,8.674753846153845,-4.362938461538461,3.072723076923077,-0.08101538461538467,-0.0038538461538462844,-0.0052307692307690425
0.379,1.0,8.67445846153846,-4.362864615384615,3.0728707692307693,-0.08105384615384621,-0.003938461538461671,-0.005107692307692115
0.38,1.0,8.674163076923076,-4.362790769230768,3.0730184615384615,-0.08109230769230776,-0.004023076923077059,-0.004984615384615187
0.381,1.0,8.673867692307692,-4.362716923076922,3.073166153846154,-0.0811307692307693,-0.004107692307692447,-0.00486153846153826
0.382,1.0,8.673572307692307,-4.362643076923076,3.0733138461538463,-0.08116923076923083,-0.0041923076923078345,-0.004738461538461333
0.383,1.0,8.673276923076921,-4.36256923076923,3.0734615384615385,-0.08120769230769237,-0.004276923076923222,-0.004615384615384405
0.384,1.0,8.672981538461537,-4.362495384615384,3.0736092307692306,-0.08124615384615391,-0.004361538461538609,-0.004492307692307478
0.385,1.0,8.672686153846152,-4.362421538461538,3.0737569230769233,-0.08128461538461546,-0.004446153846153997,-0.00436923076923055
0.386,1.0,8.672390769230768,-4.362347692307692,3.0739046153846155,-0.081323076923077,-0.004530769230769385,-0.004246153846153623
0.387,1.0,8.672095384615384,-4.362273846153846,3.0740523076923076,-0.08136153846153853,-0.004615384615384773,-0.004123076923076695
0.388,1.0,8.6718,-4.3622000000000005,3.0741999999999994,-0.0814,-0.004700000000000058,-0.0040000000000000695
0.389,1.0,8.671873846153845,-4.362495384615385,3.0739046153846146,-0.08140153846153847,-0.004730769230769287,-0.004036923076923144
0.39,1.0,8.671947692307691,-4.362790769230769,3.07360923076923,-0.08140307692307693,-0.004761538461538515,-0.004073846153846218
0.391,1.0,8.672021538461538,-4.363086153846154,3.0733138461538454,-0.08140461538461538,-0.004792307692307744,-0.004110769230769293
0.392,1.0,8.672095384615384,-4.363381538461539,3.073018461538461,-0.08140615384615385,-0.004823076923076972,-0.004147692307692367
0.393,1.0,8.67216923076923,-4.363676923076923,3.0727230769230762,-0.0814076923076923,-0.004853846153846201,-0.004184615384615441
0.394,1.0,8.672243076923076,-4.363972307692308,3.072427692307692,-0.08140923076923078,-0.004884615384615429,-0.004221538461538515
0.395,1.0,8.672316923076922,-4.364267692307693,3.072132307692307,-0.08141076923076923,-0.004915384615384658,-0.004258461538461589
0.396,1.0,8.672390769230768,-4.364563076923077,3.0718369230769227,-0.0814123076923077,-0.0049461538461538865,-0.0042953846153846635
0.397,1.0,8.672464615384614,-4.364858461538462,3.071541538461538,-0.08141384615384616,-0.004976923076923115,-0.004332307692307738
0.398,1.0,8.672538461538462,-4.365153846153846,3.0712461538461535,-0.08141538461538461,-0.005007692307692343,-0.004369230769230812
0.399,1.0,8.672612307692308,-4.365449230769231,3.0709507692307687,-0.08141692307692308,-0.0050384615384615715,-0.004406153846153886
0.4,1.0,8.672686153846154,-4.365744615384616,3.0706553846153843,-0.08141846153846154,-0.005069230769230801,-0.00444307692307696
0.401,1.0,8.67276,-4.36604,3.0703599999999995,-0.08142,-0.005100000000000029,-0.004480000000000034
0.402,1.0,8.672833846153846,-4.366335384615384,3.070064615384615,-0.08142153846153846,-0.005130769230769257,-0.0045169230769231085
0.403,1.0,8.672907692307692,-4.3666307692307695,3.0697692307692304,-0.08142307692307693,-0.005161538461538486,-0.004553846153846183
0.404,1.0,8.672981538461539,-4.366926153846154,3.069473846153846,-0.08142461538461539,-0.005192307692307715,-0.004590769230769258
0.405,1.0,8.673055384615385,-4.367221538461538,3.069178461538461,-0.08142615384615384,-0.005223076923076943,-0.004627692307692331
0.406,1.0,8.67312923076923,-4.367516923076923,3.068883076923077,-0.08142769230769231,-0.005253846153846171,-0.004664615384615406
0.40700000000000003,1.0,8.673203076923077,-4.367812307692308,3.068587692307692,-0.08142923076923077,-0.0052846153846154,-0.00470153846153848
0.40800000000000003,1.0,8.673276923076923,-4.368107692307692,3.0682923076923077,-0.08143076923076924,-0.005315384615384628,-0.004738461538461554
0.40900000000000003,1.0,8.673350769230769,-4.368403076923077,3.067996923076923,-0.08143230769230769,-0.005346153846153857,-0.004775384615384628
0.41000000000000003,1.0,8.673424615384615,-4.368698461538462,3.0677015384615385,-0.08143384615384616,-0.0053769230769230856,-0.0048123076923077025
0.41100000000000003,1.0,8.673498461538461,-4.368993846153846,3.0674061538461537,-0.08143538461538462,-0.005407692307692314,-0.004849230769230777
0.41200000000000003,1.0,8.673572307692307,-4.369289230769231,3.0671107692307693,-0.08143692307692307,-0.005438461538461542,-0.004886153846153851
0.41300000000000003,1.0,8.673646153846153,-4.369584615384615,3.0668153846153845,-0.08143846153846154,-0.005469230769230771,-0.004923076923076925
0.41400000000000003,1.0,8.67372,-4.36988,3.06652,-0.08144,-0.0055,-0.004959999999999999
0.41500000000000004,1.0,8.673793846153846,-4.370175384615385,3.0662246153846153,-0.08144153846153847,-0.005530769230769228,-0.004996923076923073
0.41600000000000004,1.0,8.673867692307692,-4.370470769230769,3.065929230769231,-0.08144307692307692,-0.005561538461538456,-0.0050338461538461474
0.417,1.0,8.673941538461538,-4.370766153846153,3.065633846153846,-0.08144461538461538,-0.005592307692307683,-0.00507076923076922
0.418,1.0,8.674015384615384,-4.3710615384615386,3.065338461538462,-0.08144615384615385,-0.005623076923076912,-0.005107692307692294
0.419,1.0,8.67408923076923,-4.371356923076923,3.065043076923077,-0.0814476923076923,-0.00565384615384614,-0.005144615384615368
0.42,1.0,8.674163076923076,-4.371652307692307,3.0647476923076926,-0.08144923076923077,-0.005684615384615369,-0.005181538461538442
0.421,1.0,8.674236923076922,-4.371947692307692,3.064452307692308,-0.08145076923076923,-0.005715384615384597,-0.0052184615384615165
0.422,1.0,8.67431076923077,-4.372243076923077,3.0641569230769234,-0.0814523076923077,-0.005746153846153826,-0.005255384615384591
0.423,1.0,8.674384615384616,-4.372538461538461,3.0638615384615386,-0.08145384615384615,-0.0057769230769230545,-0.005292307692307666
0.424,1.0,8.674458461538462,-4.372833846153846,3.0635661538461543,-0.08145538461538461,-0.005807692307692283,-0.005329230769230739
0.425,1.0,8.674532307692308,-4.373129230769231,3.0632707692307695,-0.08145692307692308,-0.005838461538461511,-0.005366153846153814
0.426,1.0,8.674606153846154,-4.373424615384615,3.062975384615385,-0.08145846153846154,-0.0058692307692307395,-0.005403076923076888
0.427,1.0,8.67468,-4.37372,3.0626800000000003,-0.08146,-0.005899999999999969,-0.005439999999999962
0.428,1.0,8.674753846153846,-4.374015384615384,3.062384615384616,-0.08146153846153846,-0.005930769230769197,-0.005476923076923036
0.429,1.0,8.674827692307693,-4.374310769230769,3.062089230769231,-0.08146307692307693,-0.005961538461538425,-0.0055138461538461105
0.43,1.0,8.674901538461539,-4.374606153846154,3.0617938461538468,-0.08146461538461539,-0.005992307692307654,-0.005550769230769185
0.431,1.0,8.674975384615385,-4.374901538461538,3.061498461538462,-0.08146615384615384,-0.006023076923076883,-0.005587692307692259
0.432,1.0,8.67504923076923,-4.375196923076922,3.0612030769230776,-0.08146769230769231,-0.006053846153846111,-0.005624615384615333
0.433,1.0,8.675123076923077,-4.375492307692308,3.0609076923076928,-0.08146923076923077,-0.006084615384615339,-0.005661538461538407
0.434,1.0,8.675196923076923,-4.375787692307692,3.0606123076923084,-0.08147076923076924,-0.006115384615384568,-0.005698461538461481
0.435,1.0,8.67527076923077,-4.376083076923076,3.0603169230769236,-0.08147230769230769,-0.006146153846153796,-0.0057353846153845554
0.436,1.0,8.675344615384615,-4.376378461538461,3.0600215384615392,-0.08147384615384615,-0.006176923076923025,-0.00577230769230763
0.437,1.0,8.675418461538461,-4.376673846153846,3.0597261538461544,-0.08147538461538462,-0.0062076923076922535,-0.005809230769230704
0.438,1.0,8.675492307692307,-4.37696923076923,3.05943076923077,-0.08147692307692307,-0.006238461538461482,-0.005846153846153779
0.439,1.0,8.675566153846153,-4.377264615384615,3.0591353846153853,-0.08147846153846154,-0.006269230769230711,-0.005883076923076852
0.44,1.0,8.67564,-4.37756,3.058840000000001,-0.08148,-0.006299999999999939,-0.005919999999999927
0.441,1.0,8.675713846153846,-4.377855384615384,3.058544615384616,-0.08148153846153847,-0.006330769230769168,-0.005956923076923
0.442,1.0,8.675787692307692,-4.378150769230769,3.0582492307692317,-0.08148307692307692,-0.006361538461538396,-0.005993846153846075
0.443,1.0,8.675861538461538,-4.378446153846153,3.057953846153847,-0.08148461538461538,-0.006392307692307624,-0.0060307692307691495
0.444,1.0,8.675935384615384,-4.378741538461538,3.0576584615384625,-0.08148615384615385,-0.006423076923076853,-0.006067692307692224
0.445,1.0,8.676009230769232,-4.379036923076923,3.0573630769230777,-0.0814876923076923,-0.006453846153846082,-0.006104615384615298
0.446,1.0,8.676083076923078,-4.379332307692307,3.057067692307693,-0.08148923076923077,-0.00648461538461531,-0.006141538461538372
0.447,1.0,8.676156923076924,-4.379627692307691,3.0567723076923086,-0.08149076923076923,-0.006515384615384538,-0.006178461538461446
0.448,1.0,8.67623076923077,-4.379923076923077,3.0564769230769238,-0.0814923076923077,-0.006546153846153768,-0.00621538461538452
0.449,1.0,8.676304615384616,-4.380218461538461,3.0561815384615394,-0.08149384615384615,-0.006576923076922996,-0.006252307692307594
0.45,1.0,8.676378461538462,-4.380513846153845,3.0558861538461546,-0.08149538461538461,-0.006607692307692224,-0.0062892307692306686
0.451,1.0,8.676452307692308,-4.38080923076923,3.05559076923077,-0.08149692307692308,-0.0066384615384614525,-0.006326153846153744
0.452,1.0,8.676526153846154,-4.381104615384615,3.0552953846153854,-0.08149846153846153,-0.006669230769230681,-0.006363076923076817
0.453,1.0,8.6766,-4.381399999999999,3.055000000000001,-0.0815,-0.006699999999999909,-0.006399999999999892
0.454,1.0,8.6766,-4.381178461538463,3.055,-0.08147384615384623,-0.006663076923077031,-0.006469230769230568
0.455,1.0,8.6766,-4.380956923076924,3.055,-0.08144769230769239,-0.0066261538461539525,-0.00653846153846134
0.456,1.0,8.6766,-4.380735384615385,3.055,-0.08142153846153855,-0.006589230769230874,-0.0066076923076921115
0.457,1.0,8.6766,-4.380513846153847,3.055,-0.08139538461538469,-0.0065523076923077956,-0.006676923076922883
0.458,1.0,8.6766,-4.380292307692309,3.055,-0.08136923076923085,-0.006515384615384718,-0.006746153846153655
0.459,1.0,8.6766,-4.38007076923077,3.055,-0.08134307692307699,-0.0064784615384616395,-0.006815384615384426
0.46,1.0,8.6766,-4.379849230769231,3.055,-0.08131692307692315,-0.006441538461538561,-0.006884615384615198
0.461,1.0,8.6766,-4.379627692307693,3.055,-0.0812907692307693,-0.0064046153846154825,-0.00695384615384597
0.462,1.0,8.6766,-4.379406153846155,3.055,-0.08126461538461545,-0.006367692307692405,-0.007023076923076742
0.463,1.0,8.6766,-4.379184615384616,3.055,-0.0812384615384616,-0.006330769230769326,-0.007092307692307514
0.464,1.0,8.6766,-4.378963076923077,3.055,-0.08121230769230776,-0.006293846153846248,-0.007161538461538285
0.465,1.0,8.6766,-4.378741538461539,3.055,-0.08118615384615391,-0.00625692307692317,-0.007230769230769057
0.466,1.0,8.6766,-4.378520000000001,3.055,-0.08116000000000007,-0.006220000000000092,-0.007299999999999829
0.467,1.0,8.6766,-4.378298461538463,3.055,-0.08113384615384622,-0.006183076923077013,-0.0073692307692306
0.468,1.0,8.6766,-4.378076923076923,3.055,-0.08110769230769237,-0.006146153846153935,-0.007438461538461372
0.46900000000000003,1.0,8.6766,-4.377855384615385,3.055,-0.08108153846153852,-0.006109230769230857,-0.007507692307692144
0.47000000000000003,1.0,8.6766,-4.377633846153847,3.055,-0.08105538461538468,-0.006072307692307779,-0.007576923076922915
0.47100000000000003,1.0,8.6766,-4.377412307692309,3.055,-0.08102923076923083,-0.0060353846153847,-0.007646153846153687
0.47200000000000003,1.0,8.6766,-4.377190769230769,3.055,-0.08100307692307698,-0.005998461538461623,-0.007715384615384459
0.47300000000000003,1.0,8.6766,-4.376969230769231,3.055,-0.08097692307692314,-0.005961538461538544,-0.007784615384615231
0.47400000000000003,1.0,8.6766,-4.376747692307693,3.055,-0.08095076923076928,-0.005924615384615466,-0.007853846153846003
0.47500000000000003,1.0,8.6766,-4.376526153846155,3.055,-0.08092461538461544,-0.005887692307692387,-0.007923076923076774
0.47600000000000003,1.0,8.6766,-4.376304615384616,3.055,-0.0808984615384616,-0.005850769230769309,-0.007992307692307545
0.47700000000000004,1.0,8.6766,-4.376083076923077,3.055,-0.08087230769230774,-0.005813846153846231,-0.008061538461538318
0.47800000000000004,1.0,8.6766,-4.375861538461539,3.055,-0.0808461538461539,-0.0057769230769231525,-0.008130769230769089
0.47900000000000004,1.0,8.6766,-4.375640000000001,3.055,-0.08082000000000006,-0.005740000000000074,-0.00819999999999986
0.48,1.0,8.6766,-4.375418461538462,3.055,-0.0807938461538462,-0.005703076923076998,-0.00826923076923063
0.481,1.0,8.6766,-4.375196923076923,3.055,-0.08076769230769236,-0.00566615384615392,-0.0083384615384614
0.482,1.0,8.6766,-4.374975384615385,3.055,-0.08074153846153852,-0.005629230769230841,-0.008407692307692172
0.483,1.0,8.6766,-4.374753846153847,3.055,-0.08071538461538466,-0.0055923076923077636,-0.008476923076922944
0.484,1.0,8.6766,-4.374532307692308,3.055,-0.08068923076923082,-0.005555384615384685,-0.008546153846153716
0.485,1.0,8.6766,-4.37431076923077,3.055,-0.08066307692307698,-0.0055184615384616074,-0.008615384615384487
0.486,1.0,8.6766,-4.374089230769231,3.055,-0.08063692307692312,-0.005481538461538529,-0.00868461538461526
0.487,1.0,8.6766,-4.373867692307693,3.055,-0.08061076923076928,-0.0054446153846154505,-0.00875384615384603
0.488,1.0,8.6766,-4.373646153846154,3.055,-0.08058461538461544,-0.005407692307692372,-0.008823076923076802
0.489,1.0,8.6766,-4.373424615384616,3.055,-0.08055846153846158,-0.0053707692307692935,-0.008892307692307574
0.49,1.0,8.6766,-4.373203076923077,3.055,-0.08053230769230774,-0.005333846153846216,-0.008961538461538346
0.491,1.0,8.6766,-4.372981538461539,3.055,-0.0805061538461539,-0.005296923076923137,-0.009030769230769118
0.492,1.0,8.6766,-4.37276,3.055,-0.08048000000000004,-0.005260000000000059,-0.00909999999999989
0.493,1.0,8.6766,-4.372538461538462,3.055,-0.0804538461538462,-0.005223076923076981,-0.009169230769230662
0.494,1.0,8.6766,-4.372316923076924,3.055,-0.08042769230769235,-0.005186153846153903,-0.009238461538461433
0.495,1.0,8.6766,-4.372095384615385,3.055,-0.0804015384615385,-0.005149230769230824,-0.009307692307692204
0.496,1.0,8.6766,-4.371873846153846,3.055,-0.08037538461538465,-0.005112307692307746,-0.009376923076922977
0.497,1.0,8.6766,-4.371652307692308,3.055,-0.08034923076923081,-0.005075384615384668,-0.009446153846153748
0.498,1.0,8.6766,-4.37143076923077,3.055,-0.08032307692307696,-0.00503846153846159,-0.00951538461538452
0.499,1.0,8.6766,-4.371209230769231,3.055,-0.08029692307692311,-0.005001538461538511,-0.009584615384615292
0.5,1.0,8.6766,-4.3709876923076925,3.055,-0.08027076923076926,-0.004964615384615434,-0.009653846153846063
0.501,1.0,8.6766,-4.370766153846154,3.055,-0.08024461538461541,-0.004927692307692355,-0.009723076923076834
0.502,1.0,8.6766,-4.370544615384616,3.055,-0.08021846153846157,-0.004890769230769277,-0.009792307692307607
0.503,1.0,8.6766,-4.370323076923078,3.055,-0.08019230769230772,-0.004853846153846198,-0.009861538461538378
0.504,1.0,8.6766,-4.3701015384615385,3.055,-0.08016615384615387,-0.00481692307692312,-0.00993076923076915
0.505,1.0,8.6766,-4.36988,3.055,-0.08014000000000003,-0.004780000000000042,-0.009999999999999922
0.506,1.0,8.6766,-4.369658461538462,3.055,-0.08011384615384617,-0.0047430769230769635,-0.010069230769230693
0.507,1.0,8.6766,-4.369436923076924,3.055,-0.08008769230769233,-0.004706153846153886,-0.010138461538461464
0.508,1.0,8.6766,-4.3692153846153845,3.055,-0.08006153846153849,-0.004669230769230807,-0.010207692307692237
0.509,1.0,8.6766,-4.368993846153846,3.055,-0.08003538461538463,-0.004632307692307729,-0.010276923076923008
0.51,1.0,8.6766,-4.368772307692308,3.055,-0.08000923076923079,-0.0045953846153846505,-0.01034615384615378
0.511,1.0,8.6766,-4.36855076923077,3.055,-0.07998307692307695,-0.004558461538461572,-0.010415384615384552
0.512,1.0,8.6766,-4.368329230769231,3.055,-0.07995692307692309,-0.004521538461538494,-0.010484615384615325
0.513,1.0,8.6766,-4.368107692307692,3.055,-0.07993076923076925,-0.004484615384615416,-0.010553846153846094
0.514,1.0,8.6766,-4.367886153846154,3.055,-0.07990461538461541,-0.004447692307692338,-0.010623076923076867
0.515,1.0,8.6766,-4.367664615384616,3.055,-0.07987846153846155,-0.00441076923076926,-0.01069230769230764
0.516,1.0,8.6766,-4.367443076923077,3.055,-0.07985230769230771,-0.004373846153846181,-0.010761538461538411
0.517,1.0,8.6766,-4.367221538461538,3.055,-0.07982615384615387,-0.004336923076923103,-0.010830769230769182
0.518,1.0,8.6766,-4.367,3.055,-0.07980000000000001,-0.004300000000000024,-0.010899999999999955
0.519,1.0,8.676889393939394,-4.3668545454545455,3.054927272727273,-0.07977424242424244,-0.0042636363636363896,-0.010874242424242443
0.52,1.0,8.677178787878788,-4.366709090909091,3.0548545454545457,-0.07974848484848486,-0.004227272727272754,-0.010848484848484868
0.521,1.0,8.677468181818183,-4.366563636363637,3.0547818181818185,-0.07972272727272729,-0.004190909090909119,-0.010822727272727293
0.522,1.0,8.677757575757576,-4.366418181818182,3.0547090909090913,-0.07969696969696971,-0.0041545454545454845,-0.010796969696969718
0.523,1.0,8.67804696969697,-4.366272727272728,3.054636363636364,-0.07967121212121214,-0.004118181818181849,-0.010771212121212143
0.524,1.0,8.678336363636364,-4.366127272727273,3.0545636363636364,-0.07964545454545456,-0.004081818181818214,-0.010745454545454568
0.525,1.0,8.678625757575757,-4.365981818181818,3.054490909090909,-0.07961969696969699,-0.0040454545454545795,-0.010719696969696994
0.526,1.0,8.678915151515152,-4.3658363636363635,3.054418181818182,-0.07959393939393941,-0.004009090909090944,-0.010693939393939419
0.527,1.0,8.679204545454546,-4.365690909090909,3.0543454545454547,-0.07956818181818184,-0.003972727272727309,-0.010668181818181844
0.528,1.0,8.67949393939394,-4.365545454545455,3.0542727272727275,-0.07954242424242426,-0.003936363636363674,-0.01064242424242427
0.529,1.0,8.679783333333333,-4.3654,3.0542000000000002,-0.0795166666666667,-0.003900000000000039,-0.010616666666666694
0.53,1.0,8.680072727272728,-4.365254545454546,3.054127272727273,-0.07949090909090911,-0.003863636363636404,-0.01059090909090912
0.531,1.0,8.680362121212122,-4.365109090909091,3.054054545454546,-0.07946515151515154,-0.003827272727272769,-0.010565151515151545
0.532,1.0,8.680651515151515,-4.364963636363637,3.053981818181818,-0.07943939393939396,-0.003790909090909134,-0.01053939393939397
0.533,1.0,8.680940909090909,-4.364818181818182,3.053909090909091,-0.0794136363636364,-0.003754545454545499,-0.010513636363636395
0.534,1.0,8.681230303030302,-4.364672727272728,3.0538363636363637,-0.07938787878787881,-0.003718181818181864,-0.01048787878787882
0.535,1.0,8.681519696969698,-4.364527272727273,3.0537636363636365,-0.07936212121212124,-0.0036818181818182288,-0.010462121212121245
0.536,1.0,8.681809090909091,-4.364381818181818,3.0536909090909092,-0.07933636363636366,-0.003645454545454594,-0.01043636363636367
0.537,1.0,8.682098484848485,-4.364236363636364,3.053618181818182,-0.0793106060606061,-0.003609090909090959,-0.010410606060606096
0.538,1.0,8.682387878787878,-4.364090909090909,3.053545454545455,-0.07928484848484851,-0.0035727272727273237,-0.010384848484848521
0.539,1.0,8.682677272727274,-4.363945454545455,3.0534727272727276,-0.07925909090909095,-0.003536363636363689,-0.010359090909090946
0.54,1.0,8.682966666666667,-4.3638,3.0534000000000003,-0.07923333333333336,-0.003500000000000054,-0.010333333333333371
0.541,1.0,8.68325606060606,-4.363654545454546,3.0533272727272727,-0.0792075757575758,-0.0034636363636364187,-0.010307575757575797
0.542,1.0,8.683545454545454,-4.3635090909090914,3.0532545454545454,-0.07918181818181821,-0.003427272727272784,-0.010281818181818222
0.543,1.0,8.683834848484848,-4.363363636363637,3.053181818181818,-0.07915606060606065,-0.003390909090909149,-0.010256060606060647
0.544,1.0,8.684124242424243,-4.3632181818181826,3.053109090909091,-0.07913030303030306,-0.0033545454545455137,-0.010230303030303072
0.545,1.0,8.684413636363637,-4.363072727272727,3.0530363636363638,-0.0791045454545455,-0.003318181818181879,-0.010204545454545497
0.546,1.0,8.68470303030303,-4.362927272727273,3.0529636363636365,-0.07907878787878792,-0.0032818181818182433,-0.010178787878787923
0.547,1.0,8.684992424242424,-4.362781818181818,3.0528909090909093,-0.07905303030303035,-0.0032454545454546086,-0.010153030303030348
0.548,1.0,8.685281818181819,-4.362636363636364,3.052818181818182,-0.07902727272727277,-0.003209090909090974,-0.010127272727272773
0.549,1.0,8.685571212121213,-4.362490909090909,3.052745454545455,-0.0790015151515152,-0.0031727272727273383,-0.010101515151515198
0.55,1.0,8.685860606060606,-4.362345454545455,3.052672727272727,-0.07897575757575762,-0.0031363636363637036,-0.010075757575757623
0.551,1.0,8.68615,-4.3622000000000005,3.0526,-0.07895000000000005,-0.003100000000000069,-0.010050000000000048
0.552,1.0,8.686439393939393,-4.362054545454546,3.0525272727272728,-0.07892424242424248,-0.0030636363636364333,-0.010024242424242474
0.553,1.0,8.686728787878788,-4.361909090909092,3.0524545454545455,-0.0788984848484849,-0.0030272727272727985,-0.009998484848484899
0.554,1.0,8.687018181818182,-4.361763636363637,3.0523818181818183,-0.07887272727272733,-0.002990909090909164,-0.009972727272727324
0.555,1.0,8.687307575757576,-4.361618181818182,3.052309090909091,-0.07884696969696975,-0.002954545454545528,-0.00994696969696975
0.556,1.0,8.687596969696969,-4.361472727272727,3.052236363636364,-0.07882121212121218,-0.0029181818181818935,-0.009921212121212174
0.557,1.0,8.687886363636364,-4.361327272727273,3.0521636363636366,-0.0787954545454546,-0.0028818181818182583,-0.0098954545454546
0.558,1.0,8.688175757575758,-4.3611818181818185,3.0520909090909094,-0.07876969696969703,-0.002845454545454623,-0.009869696969697025
0.559,1.0,8.688465151515151,-4.361036363636364,3.0520181818181817,-0.07874393939393945,-0.0028090909090909884,-0.00984393939393945
0.56,1.0,8.688754545454545,-4.36089090909091,3.0519454545454545,-0.07871818181818188,-0.0027727272727273533,-0.009818181818181875
0.561,1.0,8.689043939393938,-4.360745454545455,3.0518727272727273,-0.0786924242424243,-0.002736363636363718,-0.0097924242424243
0.562,1.0,8.689333333333334,-4.360600000000001,3.0518,-0.07866666666666673,-0.0027000000000000834,-0.009766666666666726
0.5630000000000001,1.0,8.689622727272727,-4.360454545454546,3.051727272727273,-0.07864090909090915,-0.0026636363636364483,-0.00974090909090915
0.5640000000000001,1.0,8.68991212121212,-4.360309090909092,3.0516545454545456,-0.07861515151515158,-0.002627272727272813,-0.009715151515151576
0.5650000000000001,1.0,8.690201515151514,-4.3601636363636365,3.0515818181818184,-0.078589393939394,-0.0025909090909091784,-0.009689393939394001
0.5660000000000001,1.0,8.69049090909091,-4.360018181818182,3.051509090909091,-0.07856363636363643,-0.002554545454545543,-0.009663636363636426
0.5670000000000001,1.0,8.690780303030303,-4.359872727272728,3.0514363636363635,-0.07853787878787885,-0.002518181818181908,-0.009637878787878851
0.5680000000000001,1.0,8.691069696969697,-4.359727272727273,3.0513636363636363,-0.07851212121212128,-0.0024818181818182733,-0.009612121212121277
0.5690000000000001,1.0,8.69135909090909,-4.359581818181819,3.051290909090909,-0.0784863636363637,-0.002445454545454638,-0.009586363636363702
0.5700000000000001,1.0,8.691648484848484,-4.359436363636364,3.051218181818182,-0.07846060606060613,-0.002409090909091003,-0.009560606060606127
0.5710000000000001,1.0,8.69193787878788,-4.35929090909091,3.0511454545454546,-0.07843484848484855,-0.0023727272727273683,-0.009534848484848552
0.5720000000000001,1.0,8.692227272727273,-4.359145454545455,3.0510727272727274,-0.07840909090909098,-0.002336363636363733,-0.009509090909090977
0.5730000000000001,1.0,8.692516666666666,-4.359000000000001,3.051,-0.0783833333333334,-0.002300000000000098,-0.009483333333333403
0.5740000000000001,1.0,8.69280606060606,-4.358854545454546,3.050927272727273,-0.07835757575757583,-0.0022636363636364632,-0.009457575757575828
0.5750000000000001,1.0,8.693095454545455,-4.358709090909091,3.0508545454545457,-0.07833181818181825,-0.002227272727272828,-0.009431818181818253
0.5760000000000001,1.0,8.693384848484849,-4.358563636363637,3.050781818181818,-0.07830606060606068,-0.002190909090909193,-0.009406060606060678
0.577,1.0,8.693674242424242,-4.358418181818182,3.050709090909091,-0.0782803030303031,-0.002154545454545562,-0.009380303030303107
0.578,1.0,8.693963636363636,-4.358272727272728,3.0506363636363636,-0.07825454545454553,-0.002118181818181927,-0.009354545454545532
0.579,1.0,8.69425303030303,-4.358127272727273,3.0505636363636364,-0.07822878787878795,-0.0020818181818182922,-0.009328787878787957
0.58,1.0,8.694542424242425,-4.357981818181819,3.050490909090909,-0.07820303030303039,-0.002045454545454657,-0.009303030303030382
0.581,1.0,8.694831818181818,-4.357836363636364,3.050418181818182,-0.0781772727272728,-0.002009090909091022,-0.009277272727272808
0.582,1.0,8.695121212121212,-4.35769090909091,3.0503454545454547,-0.07815151515151524,-0.0019727272727273868,-0.009251515151515233
0.583,1.0,8.695410606060605,-4.3575454545454555,3.0502727272727275,-0.07812575757575765,-0.001936363636363752,-0.009225757575757658
0.584,1.0,8.695699999999999,-4.357400000000001,3.0502000000000002,-0.07810000000000009,-0.0019000000000001169,-0.009200000000000083
0.585,1.0,8.695773846153847,-4.357327692307693,3.0505692307692294,-0.07813076923076913,-0.00190923076923074,-0.009127692307692538
0.586,1.0,8.695847692307693,-4.357255384615385,3.0509384615384603,-0.07816153846153837,-0.0019184615384615093,-0.009055384615384843
0.587,1.0,8.695921538461539,-4.357183076923078,3.051307692307691,-0.0781923076923076,-0.001927692307692279,-0.008983076923077147
0.588,1.0,8.695995384615385,-4.357110769230769,3.0516769230769216,-0.07822307692307683,-0.0019369230769230486,-0.008910769230769453
0.589,1.0,8.69606923076923,-4.357038461538462,3.0520461538461525,-0.07825384615384606,-0.0019461538461538182,-0.008838461538461758
0.59,1.0,8.696143076923077,-4.356966153846154,3.0524153846153834,-0.0782846153846153,-0.0019553846153845876,-0.008766153846154064
0.591,1.0,8.696216923076923,-4.356893846153847,3.052784615384614,-0.07831538461538452,-0.001964615384615357,-0.008693846153846368
0.592,1.0,8.69629076923077,-4.3568215384615385,3.0531538461538448,-0.07834615384615376,-0.001973846153846127,-0.008621538461538673
0.593,1.0,8.696364615384615,-4.356749230769231,3.0535230769230757,-0.078376923076923,-0.0019830769230768965,-0.008549230769230979
0.594,1.0,8.696438461538461,-4.356676923076924,3.0538923076923066,-0.07840769230769222,-0.001992307692307666,-0.008476923076923285
0.595,1.0,8.696512307692307,-4.356604615384616,3.054261538461537,-0.07843846153846146,-0.0020015384615384353,-0.008404615384615588
0.596,1.0,8.696586153846154,-4.356532307692308,3.054630769230768,-0.07846923076923068,-0.002010769230769205,-0.008332307692307894
0.597,1.0,8.69666,-4.35646,3.054999999999999,-0.07849999999999992,-0.0020199999999999745,-0.0082600000000002
0.598,1.0,8.696733846153846,-4.356387692307693,3.0553692307692297,-0.07853076923076915,-0.002029230769230744,-0.008187692307692503
0.599,1.0,8.696807692307692,-4.356315384615385,3.05573846153846,-0.07856153846153838,-0.0020384615384615138,-0.008115384615384809
0.6,1.0,8.696881538461538,-4.356243076923077,3.056107692307691,-0.07859230769230761,-0.0020476923076922834,-0.008043076923077114
0.601,1.0,8.696955384615384,-4.356170769230769,3.056476923076922,-0.07862307692307685,-0.002056923076923053,-0.00797076923076942
0.602,1.0,8.69702923076923,-4.356098461538462,3.056846153846153,-0.07865384615384607,-0.0020661538461538226,-0.007898461538461724
0.603,1.0,8.697103076923076,-4.356026153846154,3.0572153846153833,-0.07868461538461531,-0.002075384615384592,-0.00782615384615403
0.604,1.0,8.697176923076924,-4.355953846153846,3.0575846153846142,-0.07871538461538455,-0.0020846153846153614,-0.007753846153846335
0.605,1.0,8.69725076923077,-4.355881538461539,3.057953846153845,-0.07874615384615377,-0.002093846153846131,-0.00768153846153864
0.606,1.0,8.697324615384616,-4.355809230769231,3.058323076923076,-0.07877692307692301,-0.0021030769230769007,-0.007609230769230944
0.607,1.0,8.697398461538462,-4.355736923076924,3.0586923076923065,-0.07880769230769223,-0.0021123076923076703,-0.00753692307692325
0.608,1.0,8.697472307692308,-4.355664615384615,3.0590615384615374,-0.07883846153846147,-0.00212153846153844,-0.0074646153846155555
0.609,1.0,8.697546153846154,-4.355592307692308,3.0594307692307683,-0.0788692307692307,-0.0021307692307692095,-0.00739230769230786
0.61,1.0,8.69762,-4.35552,3.0597999999999987,-0.07889999999999993,-0.0021399999999999787,-0.007320000000000165
0.611,1.0,8.697693846153847,-4.355447692307693,3.0601692307692296,-0.07893076923076917,-0.0021492307692307483,-0.0072476923076924705
0.612,1.0,8.697767692307693,-4.355375384615384,3.0605384615384605,-0.0789615384615384,-0.002158461538461518,-0.007175384615384776
0.613,1.0,8.697841538461539,-4.355303076923077,3.0609076923076914,-0.07899230769230763,-0.0021676923076922876,-0.007103076923077081
0.614,1.0,8.697915384615385,-4.3552307692307695,3.061276923076922,-0.07902307692307686,-0.002176923076923057,-0.0070307692307693855
0.615,1.0,8.697989230769231,-4.355158461538462,3.061646153846153,-0.07905384615384609,-0.002186153846153827,-0.006958461538461691
0.616,1.0,8.698063076923077,-4.355086153846154,3.0620153846153837,-0.07908461538461532,-0.0021953846153845965,-0.006886153846153996
0.617,1.0,8.698136923076923,-4.355013846153846,3.0623846153846146,-0.07911538461538456,-0.0022046153846153656,-0.0068138461538463
0.618,1.0,8.69821076923077,-4.354941538461539,3.062753846153845,-0.07914615384615378,-0.0022138461538461353,-0.006741538461538606
0.619,1.0,8.698284615384615,-4.354869230769231,3.063123076923076,-0.07917692307692302,-0.002223076923076905,-0.0066692307692309116
0.62,1.0,8.698358461538461,-4.354796923076923,3.063492307692307,-0.07920769230769226,-0.0022323076923076745,-0.006596923076923216
0.621,1.0,8.698432307692308,-4.354724615384615,3.0638615384615377,-0.07923846153846148,-0.002241538461538444,-0.006524615384615521
0.622,1.0,8.698506153846154,-4.354652307692308,3.064230769230768,-0.07926923076923072,-0.0022507692307692138,-0.0064523076923078265
0.623,1.0,8.69858,-4.35458,3.064599999999999,-0.07929999999999995,-0.0022599999999999834,-0.006380000000000132
0.624,1.0,8.698653846153846,-4.354507692307692,3.06496923076923,-0.07933076923076918,-0.0022692307692307526,-0.006307692307692437
0.625,1.0,8.698727692307692,-4.3544353846153845,3.065338461538461,-0.07936153846153841,-0.002278461538461522,-0.0062353846153847415
0.626,1.0,8.698801538461538,-4.354363076923077,3.0657076923076914,-0.07939230769230764,-0.002287692307692292,-0.006163076923077047
0.627,1.0,8.698875384615384,-4.3542907692307695,3.0660769230769223,-0.07942307692307687,-0.0022969230769230614,-0.006090769230769353
0.628,1.0,8.69894923076923,-4.354218461538461,3.066446153846153,-0.07945384615384611,-0.002306153846153831,-0.0060184615384616565
0.629,1.0,8.699023076923076,-4.354146153846154,3.066815384615384,-0.07948461538461533,-0.0023153846153846007,-0.005946153846153962
0.63,1.0,8.699096923076922,-4.354073846153846,3.0671846153846145,-0.07951538461538457,-0.0023246153846153703,-0.005873846153846268
0.631,1.0,8.699170769230768,-4.354001538461539,3.0675538461538454,-0.07954615384615381,-0.0023338461538461395,-0.005801538461538572
0.632,1.0,8.699244615384615,-4.35392923076923,3.0679230769230763,-0.07957692307692303,-0.002343076923076909,-0.005729230769230877
0.633,1.0,8.69931846153846,-4.353856923076923,3.0682923076923068,-0.07960769230769227,-0.0023523076923076787,-0.005656923076923183
0.634,1.0,8.699392307692307,-4.353784615384615,3.0686615384615377,-0.0796384615384615,-0.0023615384615384484,-0.005584615384615488
0.635,1.0,8.699466153846155,-4.353712307692308,3.0690307692307686,-0.07966923076923073,-0.002370769230769218,-0.005512307692307793
0.636,1.0,8.69954,-4.3536399999999995,3.0693999999999995,-0.07969999999999997,-0.0023799999999999876,-0.0054400000000000975
0.637,1.0,8.699613846153847,-4.353567692307692,3.06976923076923,-0.07973076923076919,-0.002389230769230757,-0.005367692307692403
0.638,1.0,8.699687692307693,-4.3534953846153845,3.070138461538461,-0.07976153846153843,-0.0023984615384615264,-0.005295384615384709
0.639,1.0,8.699761538461539,-4.353423076923077,3.0705076923076917,-0.07979230769230766,-0.0024076923076922965,-0.005223076923077013
0.64,1.0,8.699835384615385,-4.353350769230769,3.0708769230769226,-0.07982307692307689,-0.0024169230769230656,-0.005150769230769318
0.641,1.0,8.699909230769231,-4.353278461538461,3.071246153846153,-0.07985384615384612,-0.0024261538461538353,-0.005078461538461624
0.642,1.0,8.699983076923077,-4.353206153846154,3.071615384615384,-0.07988461538461536,-0.002435384615384605,-0.005006153846153928
0.643,1.0,8.700056923076923,-4.353133846153846,3.071984615384615,-0.07991538461538458,-0.0024446153846153745,-0.004933846153846234
0.644,1.0,8.70013076923077,-4.353061538461538,3.0723538461538458,-0.07994615384615382,-0.002453846153846144,-0.004861538461538539
0.645,1.0,8.700204615384616,-4.35298923076923,3.0727230769230762,-0.07997692307692306,-0.0024630769230769133,-0.004789230769230844
0.646,1.0,8.700278461538462,-4.352916923076923,3.073092307692307,-0.08000769230769228,-0.0024723076923076834,-0.004716923076923149
0.647,1.0,8.700352307692308,-4.352844615384615,3.073461538461538,-0.08003846153846152,-0.0024815384615384526,-0.0046446153846154544
0.648,1.0,8.700426153846154,-4.352772307692307,3.073830769230769,-0.08006923076923074,-0.002490769230769222,-0.004572307692307759
0.649,1.0,8.7005,-4.3527,3.0741999999999994,-0.08009999999999998,-0.002499999999999992,-0.004500000000000064
0.65,1.0,8.700427272727273,-4.352481818181818,3.073981818181818,-0.08011363636363636,-0.002510606060606051,-0.0044560606060606465
0.651,1.0,8.700354545454545,-4.352263636363636,3.0737636363636365,-0.08012727272727271,-0.002521212121212111,-0.004412121212121254
0.652,1.0,8.700281818181818,-4.352045454545454,3.073545454545455,-0.08014090909090908,-0.002531818181818171,-0.004368181818181862
0.653,1.0,8.700209090909091,-4.351827272727273,3.0733272727272727,-0.08015454545454545,-0.0025424242424242315,-0.004324242424242469
0.654,1.0,8.700136363636364,-4.351609090909091,3.073109090909091,-0.0801681818181818,-0.002553030303030292,-0.004280303030303077
0.655,1.0,8.700063636363636,-4.351390909090909,3.0728909090909093,-0.08018181818181817,-0.002563636363636352,-0.004236363636363685
0.656,1.0,8.699990909090909,-4.351172727272727,3.0726727272727272,-0.08019545454545453,-0.002574242424242412,-0.004192424242424293
0.657,1.0,8.699918181818182,-4.350954545454545,3.0724545454545455,-0.0802090909090909,-0.0025848484848484724,-0.0041484848484849
0.658,1.0,8.699845454545455,-4.350736363636363,3.072236363636364,-0.08022272727272727,-0.0025954545454545327,-0.004104545454545508
0.659,1.0,8.699772727272727,-4.350518181818182,3.0720181818181818,-0.08023636363636362,-0.0026060606060605927,-0.004060606060606115
0.66,1.0,8.6997,-4.3503,3.0718,-0.08024999999999999,-0.002616666666666653,-0.004016666666666723
0.661,1.0,8.699627272727273,-4.350081818181819,3.0715818181818184,-0.08026363636363636,-0.0026272727272727133,-0.003972727272727331
0.662,1.0,8.699554545454546,-4.3498636363636365,3.0713636363636367,-0.08027727272727271,-0.0026378787878787733,-0.003928787878787939
0.663,1.0,8.699481818181818,-4.349645454545454,3.0711454545454546,-0.08029090909090908,-0.0026484848484848336,-0.0038848484848485465
0.664,1.0,8.699409090909091,-4.349427272727273,3.070927272727273,-0.08030454545454543,-0.002659090909090894,-0.003840909090909154
0.665,1.0,8.699336363636364,-4.349209090909091,3.0707090909090913,-0.0803181818181818,-0.002669696969696954,-0.0037969696969697617
0.666,1.0,8.699263636363636,-4.348990909090909,3.070490909090909,-0.08033181818181817,-0.002680303030303014,-0.0037530303030303695
0.667,1.0,8.699190909090909,-4.348772727272728,3.0702727272727275,-0.08034545454545453,-0.0026909090909090745,-0.003709090909090977
0.668,1.0,8.699118181818182,-4.348554545454546,3.070054545454546,-0.0803590909090909,-0.002701515151515135,-0.0036651515151515848
0.669,1.0,8.699045454545455,-4.3483363636363634,3.0698363636363637,-0.08037272727272725,-0.002712121212121195,-0.0036212121212121926
0.67,1.0,8.698972727272727,-4.348118181818182,3.069618181818182,-0.08038636363636362,-0.002722727272727255,-0.0035772727272728004
0.671,1.0,8.6989,-4.3479,3.0694000000000004,-0.08039999999999999,-0.0027333333333333155,-0.003533333333333408
0.672,1.0,8.698827272727273,-4.347681818181818,3.0691818181818187,-0.08041363636363634,-0.0027439393939393754,-0.0034893939393940156
0.673,1.0,8.698754545454547,-4.347463636363637,3.0689636363636366,-0.08042727272727271,-0.0027545454545454357,-0.003445454545454623
0.674,1.0,8.698681818181818,-4.347245454545455,3.068745454545455,-0.08044090909090908,-0.002765151515151496,-0.003401515151515231
0.675,1.0,8.698609090909091,-4.347027272727273,3.068527272727273,-0.08045454545454543,-0.0027757575757575564,-0.0033575757575758387
0.676,1.0,8.698536363636364,-4.346809090909091,3.068309090909091,-0.0804681818181818,-0.0027863636363636164,-0.0033136363636364465
0.677,1.0,8.698463636363636,-4.346590909090909,3.0680909090909094,-0.08048181818181815,-0.0027969696969696767,-0.003269696969697054
0.678,1.0,8.698390909090909,-4.346372727272728,3.0678727272727278,-0.08049545454545452,-0.002807575757575737,-0.0032257575757576617
0.679,1.0,8.698318181818182,-4.346154545454546,3.0676545454545456,-0.08050909090909089,-0.002818181818181797,-0.003181818181818269
0.68,1.0,8.698245454545456,-4.345936363636364,3.067436363636364,-0.08052272727272725,-0.0028287878787878573,-0.003137878787878877
0.681,1.0,8.698172727272727,-4.3457181818181825,3.0672181818181823,-0.08053636363636361,-0.0028393939393939176,-0.0030939393939394847
0.682,1.0,8.6981,-4.3455,3.0670000000000006,-0.08054999999999997,-0.0028499999999999776,-0.0030500000000000926
0.683,1.0,8.698027272727273,-4.345281818181818,3.0667818181818185,-0.08056363636363634,-0.002860606060606038,-0.0030060606060607004
0.684,1.0,8.697954545454547,-4.345063636363637,3.066563636363637,-0.0805772727272727,-0.0028712121212120982,-0.002962121212121308
0.685,1.0,8.697881818181818,-4.344845454545455,3.066345454545455,-0.08059090909090906,-0.002881818181818158,-0.002918181818181915
0.686,1.0,8.697809090909091,-4.344627272727273,3.066127272727273,-0.08060454545454543,-0.0028924242424242185,-0.002874242424242523
0.687,1.0,8.697736363636364,-4.3444090909090916,3.0659090909090914,-0.08061818181818178,-0.002903030303030279,-0.002830303030303131
0.6880000000000001,1.0,8.697663636363636,-4.344190909090909,3.0656909090909097,-0.08063181818181815,-0.002913636363636339,-0.0027863636363637386
0.6890000000000001,1.0,8.69759090909091,-4.343972727272728,3.0654727272727276,-0.08064545454545452,-0.002924242424242399,-0.0027424242424243465
0.6900000000000001,1.0,8.697518181818182,-4.343754545454546,3.065254545454546,-0.08065909090909087,-0.0029348484848484594,-0.002698484848484954
0.6910000000000001,1.0,8.697445454545456,-4.343536363636364,3.0650363636363642,-0.08067272727272724,-0.00294545454545452,-0.0026545454545455617
0.6920000000000001,1.0,8.697372727272727,-4.343318181818183,3.0648181818181826,-0.08068636363636361,-0.00295606060606058,-0.002610606060606169
0.6930000000000001,1.0,8.6973,-4.343100000000001,3.0646000000000004,-0.08069999999999997,-0.00296666666666664,-0.002566666666666777
0.6940000000000001,1.0,8.697227272727273,-4.3428818181818185,3.0643818181818188,-0.08071363636363633,-0.0029772727272727004,-0.0025227272727273847
0.6950000000000001,1.0,8.697154545454547,-4.342663636363637,3.064163636363637,-0.08072727272727269,-0.0029878787878787607,-0.0024787878787879926
0.6960000000000001,1.0,8.697081818181818,-4.342445454545455,3.063945454545455,-0.08074090909090906,-0.0029984848484848206,-0.0024348484848486
0.6970000000000001,1.0,8.697009090909091,-4.342227272727273,3.0637272727272733,-0.08075454545454543,-0.003009090909090881,-0.0023909090909092078
0.6980000000000001,1.0,8.696936363636365,-4.342009090909092,3.0635090909090916,-0.08076818181818178,-0.0030196969696969413,-0.0023469696969698156
0.6990000000000001,1.0,8.696863636363636,-4.34179090909091,3.0632909090909095,-0.08078181818181815,-0.0030303030303030012,-0.002303030303030423
0.7000000000000001,1.0,8.69679090909091,-4.341572727272728,3.063072727272728,-0.0807954545454545,-0.0030409090909090616,-0.002259090909091031
0.7010000000000001,1.0,8.696718181818182,-4.341354545454546,3.062854545454546,-0.08080909090909087,-0.003051515151515122,-0.0022151515151516386
0.7020000000000001,1.0,8.696645454545456,-4.341136363636364,3.0626363636363645,-0.08082272727272724,-0.003062121212121182,-0.002171212121212246
0.7030000000000001,1.0,8.696572727272727,-4.340918181818183,3.0624181818181824,-0.0808363636363636,-0.003072727272727242,-0.002127272727272854
0.704,1.0,8.6965,-4.340700000000001,3.0622000000000007,-0.08084999999999996,-0.0030833333333333012,-0.0020833333333334664
0.705,1.0,8.696427272727274,-4.340481818181819,3.061981818181819,-0.08086363636363632,-0.0030939393939393616,-0.0020393939393940743
0.706,1.0,8.696354545454547,-4.3402636363636375,3.061763636363637,-0.08087727272727269,-0.0031045454545454215,-0.0019954545454546817
0.707,1.0,8.696281818181818,-4.340045454545455,3.0615454545454552,-0.08089090909090906,-0.003115151515151482,-0.0019515151515152895
0.708,1.0,8.696209090909091,-4.339827272727273,3.0613272727272736,-0.08090454545454541,-0.003125757575757542,-0.0019075757575758973
0.709,1.0,8.696136363636365,-4.339609090909092,3.0611090909090914,-0.08091818181818178,-0.0031363636363636025,-0.0018636363636365047
0.71,1.0,8.696063636363636,-4.33939090909091,3.0608909090909098,-0.08093181818181815,-0.0031469696969696624,-0.0018196969696971125
0.711,1.0,8.69599090909091,-4.339172727272728,3.060672727272728,-0.0809454545454545,-0.0031575757575757228,-0.0017757575757577203
0.712,1.0,8.695918181818183,-4.338954545454547,3.0604545454545464,-0.08095909090909087,-0.003168181818181783,-0.0017318181818183277
0.713,1.0,8.695845454545456,-4.3387363636363645,3.0602363636363643,-0.08097272727272722,-0.0031787878787878435,-0.0016878787878789356
0.714,1.0,8.695772727272727,-4.338518181818182,3.0600181818181826,-0.08098636363636359,-0.0031893939393939034,-0.0016439393939395434
0.715,1.0,8.6957,-4.338300000000001,3.059800000000001,-0.08099999999999996,-0.0031999999999999637,-0.0016000000000001512
0.716,1.0,8.6957,-4.338373846153846,3.0595046153846166,-0.08101230769230765,-0.003206153846153825,-0.0015692307692308741
0.717,1.0,8.6957,-4.3384476923076924,3.059209230769232,-0.08102461538461535,-0.003212307692307672,-0.0015384615384616423
0.718,1.0,8.6957,-4.3385215384615385,3.0589138461538474,-0.08103692307692303,-0.003218461538461518,-0.0015076923076924103
0.719,1.0,8.6957,-4.338595384615385,3.0586184615384626,-0.08104923076923073,-0.0032246153846153644,-0.0014769230769231785
0.72,1.0,8.6957,-4.338669230769231,3.058323076923078,-0.08106153846153842,-0.0032307692307692107,-0.0014461538461539465
0.721,1.0,8.6957,-4.338743076923077,3.0580276923076934,-0.08107384615384612,-0.0032369230769230574,-0.0014153846153847148
0.722,1.0,8.6957,-4.338816923076923,3.0577323076923086,-0.08108615384615381,-0.0032430769230769037,-0.0013846153846154828
0.723,1.0,8.6957,-4.338890769230769,3.0574369230769243,-0.08109846153846151,-0.00324923076923075,-0.001353846153846251
0.724,1.0,8.6957,-4.338964615384615,3.0571415384615395,-0.0811107692307692,-0.003255384615384596,-0.0013230769230770192
0.725,1.0,8.6957,-4.339038461538461,3.0568461538461547,-0.08112307692307688,-0.0032615384615384425,-0.0012923076923077872
0.726,1.0,8.6957,-4.339112307692307,3.0565507692307703,-0.08113538461538458,-0.003267692307692289,-0.0012615384615385554
0.727,1.0,8.6957,-4.339186153846153,3.0562553846153855,-0.08114769230769227,-0.0032738461538461354,-0.0012307692307693234
0.728,1.0,8.6957,-4.33926,3.055960000000001,-0.08115999999999997,-0.0032799999999999817,-0.0012000000000000916
0.729,1.0,8.6957,-4.339333846153846,3.0556646153846163,-0.08117230769230765,-0.003286153846153828,-0.0011692307692308598
0.73,1.0,8.6957,-4.3394076923076925,3.0553692307692315,-0.08118461538461536,-0.0032923076923076747,-0.0011384615384616278
0.731,1.0,8.6957,-4.339481538461539,3.055073846153847,-0.08119692307692304,-0.003298461538461521,-0.0011076923076923958
0.732,1.0,8.6957,-4.339555384615385,3.0547784615384623,-0.08120923076923074,-0.0033046153846153672,-0.001076923076923164
0.733,1.0,8.6957,-4.339629230769231,3.054483076923078,-0.08122153846153843,-0.0033107692307692135,-0.0010461538461539323
0.734,1.0,8.6957,-4.339703076923077,3.054187692307693,-0.08123384615384611,-0.00331692307692306,-0.0010153846153847005
0.735,1.0,8.6957,-4.339776923076923,3.0538923076923083,-0.08124615384615382,-0.0033230769230769065,-0.0009846153846154685
0.736,1.0,8.6957,-4.339850769230769,3.053596923076924,-0.0812584615384615,-0.0033292307692307527,-0.0009538461538462366
0.737,1.0,8.6957,-4.339924615384615,3.053301538461539,-0.0812707692307692,-0.003335384615384599,-0.0009230769230770048
0.738,1.0,8.6957,-4.339998461538461,3.053006153846155,-0.08128307692307689,-0.0033415384615384453,-0.0008923076923077729
0.739,1.0,8.6957,-4.340072307692307,3.05271076923077,-0.08129538461538459,-0.003347692307692292,-0.000861538461538541
0.74,1.0,8.6957,-4.340146153846153,3.052415384615385,-0.08130769230769228,-0.0033538461538461383,-0.0008307692307693091
0.741,1.0,8.6957,-4.3402199999999995,3.052120000000001,-0.08131999999999998,-0.0033599999999999845,-0.0008000000000000772
0.742,1.0,8.6957,-4.340293846153846,3.051824615384616,-0.08133230769230766,-0.003366153846153831,-0.0007692307692308453
0.743,1.0,8.6957,-4.340367692307693,3.0515292307692317,-0.08134461538461535,-0.0033723076923076775,-0.0007384615384616136
0.744,1.0,8.6957,-4.340441538461539,3.051233846153847,-0.08135692307692305,-0.0033784615384615238,-0.0007076923076923817
0.745,1.0,8.6957,-4.340515384615385,3.050938461538462,-0.08136923076923074,-0.00338461538461537,-0.0006769230769231498
0.746,1.0,8.6957,-4.340589230769231,3.0506430769230777,-0.08138153846153844,-0.0033907692307692163,-0.0006461538461539179
0.747,1.0,8.6957,-4.340663076923077,3.050347692307693,-0.08139384615384612,-0.003396923076923063,-0.000615384615384686
0.748,1.0,8.6957,-4.340736923076923,3.0500523076923085,-0.08140615384615382,-0.0034030769230769093,-0.0005846153846154542
0.749,1.0,8.6957,-4.340810769230769,3.0497569230769237,-0.08141846153846151,-0.0034092307692307556,-0.0005538461538462222
0.75,1.0,8.6957,-4.340884615384615,3.0494615384615393,-0.08143076923076921,-0.003415384615384602,-0.0005230769230769904
0.751,1.0,8.6957,-4.340958461538461,3.0491661538461545,-0.0814430769230769,-0.0034215384615384485,-0.0004923076923077584
0.752,1.0,8.6957,-4.341032307692307,3.0488707692307697,-0.08145538461538458,-0.003427692307692295,-0.00046153846153852663
0.753,1.0,8.6957,-4.3411061538461535,3.0485753846153854,-0.08146769230769228,-0.003433846153846141,-0.00043076923076929485
0.754,1.0,8.6957,-4.34118,3.0482800000000005,-0.08147999999999997,-0.0034399999999999873,-0.00040000000000006285
0.755,1.0,8.6957,-4.341253846153846,3.047984615384616,-0.08149230769230767,-0.003446153846153834,-0.00036923076923083106
0.756,1.0,8.6957,-4.341327692307692,3.0476892307692314,-0.08150461538461536,-0.0034523076923076803,-0.00033846153846159906
0.757,1.0,8.6957,-4.341401538461538,3.0473938461538466,-0.08151692307692306,-0.0034584615384615266,-0.0003076923076923673
0.758,1.0,8.6957,-4.341475384615384,3.047098461538462,-0.08152923076923074,-0.003464615384615373,-0.0002769230769231355
0.759,1.0,8.6957,-4.341549230769231,3.0468030769230774,-0.08154153846153844,-0.003470769230769219,-0.0002461538461539035
0.76,1.0,8.6957,-4.341623076923077,3.046507692307693,-0.08155384615384613,-0.003476923076923066,-0.0002153846153846717
0.761,1.0,8.6957,-4.341696923076923,3.046212307692308,-0.08156615384615383,-0.003483076923076912,-0.0001846153846154397
0.762,1.0,8.6957,-4.341770769230769,3.0459169230769234,-0.08157846153846152,-0.0034892307692307584,-0.00015384615384620793
0.763,1.0,8.6957,-4.341844615384615,3.045621538461539,-0.0815907692307692,-0.0034953846153846046,-0.00012307692307697593
0.764,1.0,8.6957,-4.341918461538461,3.0453261538461542,-0.0816030769230769,-0.003501538461538451,-9.230769230774414e-05
0.765,1.0,8.6957,-4.3419923076923075,3.04503076923077,-0.08161538461538459,-0.0035076923076922976,-6.153846153851236e-05
0.766,1.0,8.6957,-4.342066153846154,3.044735384615385,-0.08162769230769229,-0.003513846153846144,-3.0769230769280356e-05
0.767,1.0,8.6957,-4.34214,3.0444400000000003,-0.08163999999999998,-0.00351999999999999,-4.85722573273506e-17
0.768,1.0,8.6957,-4.342213846153846,3.044144615384616,-0.08165230769230768,-0.003526153846153837,3.076923076918343e-05
0.769,1.0,8.6957,-4.342287692307692,3.043849230769231,-0.08166461538461536,-0.003532307692307683,6.153846153841521e-05
0.77,1.0,8.6957,-4.342361538461538,3.0435538461538467,-0.08167692307692306,-0.0035384615384615294,9.2307692307647e-05
0.771,1.0,8.6957,-4.342435384615384,3.043258461538462,-0.08168923076923075,-0.0035446153846153757,0.000123076923076879
0.772,1.0,8.6957,-4.34250923076923,3.042963076923077,-0.08170153846153844,-0.003550769230769222,0.00015384615384611078
0.773,1.0,8.6957,-4.342583076923076,3.0426676923076927,-0.08171384615384614,-0.0035569230769230686,0.00018461538461534278
0.774,1.0,8.6957,-4.342656923076923,3.042372307692308,-0.08172615384615382,-0.003563076923076915,0.00021538461538457457
0.775,1.0,8.6957,-4.342730769230769,3.0420769230769236,-0.08173846153846152,-0.003569230769230761,0.00024615384615380635
0.776,1.0,8.6957,-4.342804615384615,3.0417815384615388,-0.08175076923076921,-0.0035753846153846074,0.00027692307692303835
0.777,1.0,8.6957,-4.3428784615384615,3.0414861538461544,-0.08176307692307691,-0.003581538461538454,0.00030769230769227014
0.778,1.0,8.6957,-4.342952307692308,3.0411907692307696,-0.0817753846153846,-0.0035876923076923004,0.00033846153846150214
0.779,1.0,8.6957,-4.343026153846154,3.0408953846153848,-0.0817876923076923,-0.0035938461538461467,0.0003692307692307339
0.78,1.0,8.6957,-4.3431,3.0406000000000004,-0.08179999999999998,-0.003599999999999993,0.0003999999999999657
0.781,1.0,8.695775000000001,-4.343175,3.040825,-0.0818078125,-0.003595312500000005,0.00040468749999999484
0.782,1.0,8.69585,-4.343249999999999,3.04105,-0.08181562499999999,-0.0035906250000000053,0.0004093749999999948
0.783,1.0,8.695925,-4.343325,3.0412749999999997,-0.08182343749999998,-0.003585937500000005,0.00041406249999999484
0.784,1.0,8.696,-4.3434,3.0414999999999996,-0.08183125,-0.003581250000000005,0.0004187499999999948
0.785,1.0,8.696075,-4.343475,3.0417249999999996,-0.08183906249999999,-0.003576562500000005,0.00042343749999999484
0.786,1.0,8.696150000000001,-4.34355,3.04195,-0.08184687499999999,-0.003571875000000005,0.0004281249999999948
0.787,1.0,8.696225,-4.343624999999999,3.042175,-0.0818546875,-0.0035671875000000052,0.00043281249999999483
0.788,1.0,8.6963,-4.3437,3.0423999999999998,-0.08186249999999999,-0.003562500000000005,0.0004374999999999948
0.789,1.0,8.696375,-4.343775,3.0426249999999997,-0.08187031249999999,-0.003557812500000005,0.00044218749999999483
0.79,1.0,8.69645,-4.34385,3.0428499999999996,-0.081878125,-0.003553125000000005,0.0004468749999999948
0.791,1.0,8.696525,-4.343925,3.043075,-0.08188593749999999,-0.003548437500000005,0.00045156249999999483
0.792,1.0,8.6966,-4.343999999999999,3.0433,-0.08189374999999999,-0.0035437500000000052,0.0004562499999999948
0.793,1.0,8.696675,-4.344075,3.043525,-0.08190156249999998,-0.0035390625000000053,0.0004609374999999948
0.794,1.0,8.69675,-4.34415,3.0437499999999997,-0.08190937499999999,-0.003534375000000005,0.0004656249999999948
0.795,1.0,8.696825,-4.344225,3.0439749999999997,-0.08191718749999999,-0.003529687500000005,0.0004703124999999948
0.796,1.0,8.6969,-4.3443,3.0441999999999996,-0.08192499999999998,-0.003525000000000005,0.0004749999999999948
0.797,1.0,8.696975,-4.344374999999999,3.044425,-0.0819328125,-0.003520312500000005,0.0004796874999999948
0.798,1.0,8.69705,-4.34445,3.04465,-0.08194062499999999,-0.0035156250000000053,0.0004843749999999948
0.799,1.0,8.697125,-4.344525,3.0448749999999998,-0.08194843749999998,-0.003510937500000005,0.0004890624999999948
0.8,1.0,8.6972,-4.3446,3.0450999999999997,-0.08195625,-0.003506250000000005,0.0004937499999999948
0.801,1.0,8.697275,-4.344675,3.0453249999999996,-0.08196406249999999,-0.003501562500000005,0.0004984374999999948
0.802,1.0,8.69735,-4.3447499999999994,3.04555,-0.08197187499999999,-0.003496875000000005,0.0005031249999999948
0.803,1.0,8.697425,-4.344825,3.045775,-0.0819796875,-0.0034921875000000053,0.0005078124999999948
0.804,1.0,8.6975,-4.3449,3.046,-0.08198749999999999,-0.0034875000000000054,0.0005124999999999948
0.805,1.0,8.697575,-4.344975,3.0462249999999997,-0.08199531249999999,-0.003482812500000005,0.0005171874999999949
0.806,1.0,8.69765,-4.34505,3.0464499999999997,-0.08200312499999998,-0.003478125000000005,0.0005218749999999948
0.807,1.0,8.697725,-4.3451249999999995,3.0466749999999996,-0.08201093749999999,-0.003473437500000005,0.0005265624999999948
0.808,1.0,8.6978,-4.3452,3.0469,-0.08201874999999999,-0.0034687500000000052,0.0005312499999999948
0.809,1.0,8.697875,-4.345275,3.047125,-0.08202656249999998,-0.0034640625000000053,0.0005359374999999948
0.81,1.0,8.69795,-4.34535,3.04735,-0.08203437499999999,-0.003459375000000005,0.0005406249999999948
0.811,1.0,8.698025,-4.345425,3.0475749999999997,-0.08204218749999999,-0.003454687500000005,0.0005453124999999948
0.812,1.0,8.6981,-4.3454999999999995,3.0477999999999996,-0.08204999999999998,-0.003450000000000005,0.0005499999999999948
0.8130000000000001,1.0,8.698175,-4.345575,3.048025,-0.0820578125,-0.0034453125000000052,0.0005546874999999949
0.8140000000000001,1.0,8.69825,-4.34565,3.04825,-0.08206562499999999,-0.0034406250000000053,0.0005593749999999948
0.8150000000000001,1.0,8.698325,-4.345725,3.048475,-0.08207343749999998,-0.003435937500000005,0.0005640624999999948
0.8160000000000001,1.0,8.6984,-4.3458,3.0486999999999997,-0.08208125,-0.003431250000000005,0.0005687499999999948
0.8170000000000001,1.0,8.698475,-4.3458749999999995,3.0489249999999997,-0.08208906249999999,-0.003426562500000005,0.0005734374999999947
0.8180000000000001,1.0,8.698550000000001,-4.34595,3.04915,-0.08209687499999999,-0.003421875000000005,0.0005781249999999948
0.8190000000000001,1.0,8.698625,-4.346025,3.049375,-0.0821046875,-0.0034171875000000053,0.0005828124999999948
0.8200000000000001,1.0,8.6987,-4.3461,3.0496,-0.08211249999999999,-0.003412500000000005,0.0005874999999999948
0.8210000000000001,1.0,8.698775,-4.346175,3.049825,-0.08212031249999999,-0.003407812500000005,0.0005921874999999948
0.8220000000000001,1.0,8.69885,-4.3462499999999995,3.0500499999999997,-0.082128125,-0.003403125000000005,0.0005968749999999948
0.8230000000000001,1.0,8.698925,-4.346325,3.050275,-0.08213593749999999,-0.003398437500000005,0.0006015624999999948
0.8240000000000001,1.0,8.699,-4.3464,3.0505,-0.08214374999999999,-0.0033937500000000053,0.0006062499999999948
0.8250000000000001,1.0,8.699075,-4.346475,3.050725,-0.08215156249999998,-0.0033890625000000054,0.0006109374999999948
0.8260000000000001,1.0,8.69915,-4.34655,3.05095,-0.08215937499999999,-0.003384375000000005,0.0006156249999999949
0.8270000000000001,1.0,8.699225,-4.3466249999999995,3.0511749999999997,-0.08216718749999999,-0.003379687500000005,0.0006203124999999948
0.8280000000000001,1.0,8.6993,-4.3467,3.0513999999999997,-0.08217499999999998,-0.003375000000000005,0.0006249999999999948
0.8290000000000001,1.0,8.699375,-4.346775,3.051625,-0.0821828125,-0.0033703125000000052,0.0006296874999999948
0.8300000000000001,1.0,8.69945,-4.34685,3.05185,-0.08219062499999999,-0.0033656250000000053,0.0006343749999999948
0.8310000000000001,1.0,8.699525,-4.346925,3.052075,-0.08219843749999999,-0.003360937500000005,0.0006390624999999948
0.8320000000000001,1.0,8.6996,-4.3469999999999995,3.0523,-0.08220625,-0.003356250000000005,0.0006437499999999948
0.833,1.0,8.699675,-4.347075,3.0525249999999997,-0.08221406249999999,-0.0033515625000000056,0.0006484374999999943
0.834,1.0,8.69975,-4.34715,3.05275,-0.08222187499999999,-0.0033468750000000057,0.0006531249999999942
0.835,1.0,8.699825,-4.347225,3.052975,-0.08222968749999998,-0.0033421875000000057,0.0006578124999999943
0.836,1.0,8.6999,-4.3473,3.0532,-0.08223749999999999,-0.003337500000000006,0.0006624999999999943
0.837,1.0,8.699975,-4.3473749999999995,3.053425,-0.08224531249999999,-0.003332812500000006,0.0006671874999999943
0.838,1.0,8.70005,-4.34745,3.0536499999999998,-0.08225312499999998,-0.0033281250000000056,0.0006718749999999943
0.839,1.0,8.700125,-4.347525,3.0538749999999997,-0.08226093749999999,-0.0033234375000000056,0.0006765624999999942
0.84,1.0,8.7002,-4.3476,3.0541,-0.08226874999999999,-0.0033187500000000057,0.0006812499999999943
0.841,1.0,8.700275,-4.347675,3.054325,-0.08227656249999998,-0.003314062500000006,0.0006859374999999943
0.842,1.0,8.70035,-4.34775,3.05455,-0.08228437499999999,-0.003309375000000006,0.0006906249999999942
0.843,1.0,8.700425,-4.347825,3.054775,-0.08229218749999999,-0.0033046875000000055,0.0006953124999999943
0.844,1.0,8.7005,-4.3479,3.0549999999999997,-0.08229999999999998,-0.0033000000000000056,0.0006999999999999942
0.845,1.0,8.7005,-4.347678461538462,3.0550738461538463,-0.08228615384615386,-0.0032600000000000476,0.000732307692307654
0.846,1.0,8.7005,-4.3474569230769236,3.0551476923076923,-0.0822723076923077,-0.003220000000000046,0.0007646153846153474
0.847,1.0,8.7005,-4.347235384615385,3.0552215384615384,-0.08225846153846156,-0.0031800000000000443,0.0007969230769230409
0.848,1.0,8.7005,-4.347013846153846,3.0552953846153845,-0.0822446153846154,-0.003140000000000043,0.0008292307692307345
0.849,1.0,8.7005,-4.346792307692308,3.055369230769231,-0.08223076923076925,-0.0031000000000000415,0.0008615384615384279
0.85,1.0,8.7005,-4.34657076923077,3.055443076923077,-0.08221692307692309,-0.00306000000000004,0.0008938461538461214
0.851,1.0,8.7005,-4.346349230769231,3.0555169230769232,-0.08220307692307693,-0.0030200000000000387,0.0009261538461538149
0.852,1.0,8.7005,-4.346127692307693,3.0555907692307693,-0.08218923076923078,-0.0029800000000000373,0.0009584615384615083
0.853,1.0,8.7005,-4.345906153846154,3.0556646153846154,-0.08217538461538462,-0.002940000000000036,0.0009907692307692018
0.854,1.0,8.7005,-4.345684615384616,3.0557384615384615,-0.08216153846153847,-0.0029000000000000345,0.0010230769230768952
0.855,1.0,8.7005,-4.345463076923077,3.0558123076923076,-0.08214769230769232,-0.002860000000000033,0.0010553846153845887
0.856,1.0,8.7005,-4.345241538461539,3.055886153846154,-0.08213384615384617,-0.0028200000000000317,0.0010876923076922822
0.857,1.0,8.7005,-4.34502,3.0559600000000002,-0.08212000000000001,-0.0027800000000000303,0.0011199999999999756
0.858,1.0,8.7005,-4.344798461538462,3.0560338461538463,-0.08210615384615386,-0.002740000000000029,0.001152307692307669
0.859,1.0,8.7005,-4.344576923076923,3.0561076923076924,-0.0820923076923077,-0.0027000000000000275,0.0011846153846153625
0.86,1.0,8.7005,-4.344355384615385,3.0561815384615385,-0.08207846153846154,-0.002660000000000026,0.001216923076923056
0.861,1.0,8.7005,-4.344133846153846,3.0562553846153846,-0.08206461538461539,-0.0026200000000000247,0.0012492307692307495
0.862,1.0,8.7005,-4.343912307692308,3.0563292307692307,-0.08205076923076923,-0.0025800000000000232,0.001281538461538443
0.863,1.0,8.7005,-4.343690769230769,3.0564030769230772,-0.08203692307692308,-0.0025400000000000214,0.0013138461538461364
0.864,1.0,8.7005,-4.343469230769231,3.0564769230769233,-0.08202307692307693,-0.0025000000000000204,0.0013461538461538298
0.865,1.0,8.7005,-4.343247692307693,3.0565507692307694,-0.08200923076923078,-0.0024600000000000186,0.0013784615384615233
0.866,1.0,8.7005,-4.343026153846154,3.0566246153846155,-0.08199538461538462,-0.002420000000000017,0.0014107692307692168
0.867,1.0,8.7005,-4.342804615384615,3.0566984615384616,-0.08198153846153847,-0.002380000000000016,0.0014430769230769102
0.868,1.0,8.7005,-4.342583076923077,3.0567723076923077,-0.08196769230769231,-0.0023400000000000144,0.0014753846153846037
0.869,1.0,8.7005,-4.342361538461539,3.0568461538461538,-0.08195384615384615,-0.002300000000000013,0.0015076923076922971
0.87,1.0,8.7005,-4.34214,3.0569200000000003,-0.08194,-0.0022600000000000116,0.0015399999999999906
0.871,1.0,8.7005,-4.341918461538461,3.0569938461538464,-0.08192615384615384,-0.00222000000000001,0.001572307692307684
0.872,1.0,8.7005,-4.341696923076923,3.0570676923076925,-0.0819123076923077,-0.0021800000000000088,0.0016046153846153775
0.873,1.0,8.7005,-4.341475384615385,3.0571415384615386,-0.08189846153846154,-0.0021400000000000073,0.001636923076923071
0.874,1.0,8.7005,-4.341253846153847,3.0572153846153847,-0.08188461538461539,-0.002100000000000006,0.0016692307692307644
0.875,1.0,8.7005,-4.341032307692307,3.0572892307692308,-0.08187076923076923,-0.0020600000000000045,0.001701538461538458
0.876,1.0,8.7005,-4.340810769230769,3.057363076923077,-0.08185692307692308,-0.002020000000000003,0.0017338461538461514
0.877,1.0,8.7005,-4.340589230769231,3.0574369230769234,-0.08184307692307692,-0.0019800000000000017,0.0017661538461538448
0.878,1.0,8.7005,-4.340367692307693,3.0575107692307695,-0.08182923076923077,-0.00194,0.0017984615384615383
0.879,1.0,8.7005,-4.340146153846153,3.0575846153846156,-0.08181538461538461,-0.0018999999999999987,0.0018307692307692317
0.88,1.0,8.7005,-4.339924615384615,3.0576584615384617,-0.08180153846153845,-0.0018599999999999973,0.0018630769230769252
0.881,1.0,8.7005,-4.339703076923077,3.0577323076923077,-0.08178769230769231,-0.0018199999999999959,0.0018953846153846187
0.882,1.0,8.7005,-4.339481538461539,3.057806153846154,-0.08177384615384616,-0.0017799999999999945,0.0019276923076923121
0.883,1.0,8.7005,-4.33926,3.05788,-0.08176,-0.001739999999999993,0.0019600000000000056
0.884,1.0,8.7005,-4.339038461538461,3.0579538461538465,-0.08174615384615384,-0.0016999999999999917,0.001992307692307699
0.885,1.0,8.7005,-4.338816923076923,3.0580276923076926,-0.08173230769230769,-0.0016599999999999903,0.002024615384615393
0.886,1.0,8.7005,-4.338595384615385,3.0581015384615386,-0.08171846153846153,-0.0016199999999999886,0.0020569230769230864
0.887,1.0,8.7005,-4.338373846153846,3.0581753846153847,-0.08170461538461538,-0.0015799999999999872,0.00208923076923078
0.888,1.0,8.7005,-4.338152307692307,3.058249230769231,-0.08169076923076922,-0.0015399999999999858,0.0021215384615384733
0.889,1.0,8.7005,-4.337930769230769,3.058323076923077,-0.08167692307692308,-0.0014999999999999844,0.0021538461538461668
0.89,1.0,8.7005,-4.337709230769231,3.058396923076923,-0.08166307692307692,-0.001459999999999983,0.0021861538461538602
0.891,1.0,8.7005,-4.337487692307692,3.0584707692307695,-0.08164923076923077,-0.0014199999999999816,0.0022184615384615537
0.892,1.0,8.7005,-4.337266153846154,3.0585446153846156,-0.08163538461538461,-0.0013799999999999802,0.002250769230769247
0.893,1.0,8.7005,-4.337044615384615,3.0586184615384617,-0.08162153846153845,-0.0013399999999999788,0.0022830769230769406
0.894,1.0,8.7005,-4.336823076923077,3.058692307692308,-0.0816076923076923,-0.0012999999999999774,0.002315384615384634
0.895,1.0,8.7005,-4.336601538461538,3.058766153846154,-0.08159384615384614,-0.001259999999999976,0.0023476923076923275
0.896,1.0,8.7005,-4.33638,3.05884,-0.08157999999999999,-0.0012199999999999746,0.002380000000000021
0.897,1.0,8.7005,-4.336158461538461,3.058913846153846,-0.08156615384615383,-0.0011799999999999732,0.0024123076923077144
0.898,1.0,8.7005,-4.335936923076923,3.0589876923076926,-0.08155230769230769,-0.0011399999999999718,0.002444615384615408
0.899,1.0,8.7005,-4.335715384615384,3.0590615384615387,-0.08153846153846153,-0.00109999999999997,0.0024769230769231014
0.9,1.0,8.7005,-4.335493846153846,3.059135384615385,-0.08152461538461538,-0.0010599999999999685,0.002509230769230795
0.901,1.0,8.7005,-4.335272307692308,3.059209230769231,-0.08151076923076922,-0.0010199999999999671,0.0025415384615384883
0.902,1.0,8.7005,-4.335050769230769,3.059283076923077,-0.08149692307692306,-0.0009799999999999657,0.0025738461538461817
0.903,1.0,8.7005,-4.33482923076923,3.059356923076923,-0.08148307692307691,-0.0009399999999999643,0.002606153846153875
0.904,1.0,8.7005,-4.334607692307692,3.059430769230769,-0.08146923076923075,-0.0008999999999999629,0.0026384615384615687
0.905,1.0,8.7005,-4.334386153846154,3.0595046153846157,-0.0814553846153846,-0.0008599999999999615,0.002670769230769262
0.906,1.0,8.7005,-4.334164615384615,3.059578461538462,-0.08144153846153845,-0.0008199999999999601,0.0027030769230769556
0.907,1.0,8.7005,-4.3339430769230765,3.059652307692308,-0.0814276923076923,-0.0007799999999999587,0.002735384615384649
0.908,1.0,8.7005,-4.333721538461538,3.059726153846154,-0.08141384615384614,-0.0007399999999999573,0.0027676923076923425
0.909,1.0,8.7005,-4.3335,3.0598,-0.08140000000000003,-0.000700000000000059,0.0027999999999999653
0.91,1.0,8.700425,-4.333725,3.05965,-0.08142343750000003,-0.000753125000000059,0.0027687499999999652
0.911,1.0,8.70035,-4.33395,3.0595,-0.08144687500000003,-0.000806250000000059,0.0027374999999999652
0.912,1.0,8.700275,-4.334175,3.05935,-0.08147031250000003,-0.000859375000000059,0.002706249999999965
0.913,1.0,8.7002,-4.3344000000000005,3.0591999999999997,-0.08149375000000003,-0.000912500000000059,0.002674999999999965
0.914,1.0,8.700125,-4.334625,3.05905,-0.08151718750000003,-0.000965625000000059,0.002643749999999965
0.915,1.0,8.70005,-4.33485,3.0589,-0.08154062500000003,-0.001018750000000059,0.002612499999999965
0.916,1.0,8.699975,-4.335075,3.05875,-0.08156406250000002,-0.001071875000000059,0.002581249999999965
0.917,1.0,8.6999,-4.3353,3.0585999999999998,-0.08158750000000002,-0.0011250000000000591,0.0025499999999999655
0.918,1.0,8.699825,-4.3355250000000005,3.0584499999999997,-0.08161093750000002,-0.001178125000000059,0.0025187499999999655
0.919,1.0,8.69975,-4.33575,3.0583,-0.08163437500000002,-0.0012312500000000591,0.0024874999999999654
0.92,1.0,8.699675,-4.335975,3.05815,-0.08165781250000002,-0.001284375000000059,0.0024562499999999654
0.921,1.0,8.6996,-4.3362,3.058,-0.08168125000000002,-0.0013375000000000591,0.0024249999999999654
0.922,1.0,8.699525,-4.336425,3.0578499999999997,-0.08170468750000003,-0.001390625000000059,0.0023937499999999653
0.923,1.0,8.69945,-4.336650000000001,3.0576999999999996,-0.08172812500000003,-0.0014437500000000591,0.0023624999999999653
0.924,1.0,8.699375,-4.336875,3.05755,-0.08175156250000003,-0.001496875000000059,0.0023312499999999653
0.925,1.0,8.6993,-4.3371,3.0574,-0.08177500000000003,-0.0015500000000000591,0.0022999999999999653
0.926,1.0,8.699225,-4.337325,3.05725,-0.08179843750000003,-0.001603125000000059,0.0022687499999999652
0.927,1.0,8.69915,-4.33755,3.0570999999999997,-0.08182187500000003,-0.0016562500000000592,0.002237499999999965
0.928,1.0,8.699075,-4.337775000000001,3.0569499999999996,-0.08184531250000003,-0.001709375000000059,0.002206249999999965
0.929,1.0,8.699,-4.338,3.0568,-0.08186875000000003,-0.0017625000000000592,0.002174999999999965
0.93,1.0,8.698925,-4.338225,3.05665,-0.08189218750000003,-0.001815625000000059,0.002143749999999965
0.931,1.0,8.69885,-4.33845,3.0564999999999998,-0.08191562500000002,-0.0018687500000000592,0.002112499999999965
0.932,1.0,8.698775,-4.338675,3.0563499999999997,-0.08193906250000002,-0.001921875000000059,0.002081249999999965
0.933,1.0,8.6987,-4.338900000000001,3.0561999999999996,-0.08196250000000002,-0.001975000000000059,0.002049999999999965
0.934,1.0,8.698625,-4.339125,3.05605,-0.08198593750000002,-0.002028125000000059,0.002018749999999965
0.935,1.0,8.698550000000001,-4.3393500000000005,3.0559,-0.08200937500000002,-0.002081250000000059,0.0019874999999999654
0.936,1.0,8.698475,-4.339575,3.0557499999999997,-0.08203281250000002,-0.002134375000000059,0.0019562499999999654
0.937,1.0,8.6984,-4.3398,3.0555999999999996,-0.08205625000000003,-0.002187500000000059,0.0019249999999999654
0.9380000000000001,1.0,8.698325,-4.340025000000001,3.05545,-0.08207968750000003,-0.002240625000000059,0.0018937499999999653
0.9390000000000001,1.0,8.69825,-4.34025,3.0553,-0.08210312500000003,-0.002293750000000059,0.0018624999999999653
0.9400000000000001,1.0,8.698175,-4.3404750000000005,3.05515,-0.08212656250000003,-0.002346875000000059,0.0018312499999999653
0.9410000000000001,1.0,8.6981,-4.3407,3.0549999999999997,-0.08215000000000003,-0.002400000000000059,0.0017999999999999653
0.9420000000000001,1.0,8.698025,-4.340925,3.0548499999999996,-0.08217343750000003,-0.002453125000000059,0.0017687499999999652
0.9430000000000001,1.0,8.69795,-4.34115,3.0547,-0.08219687500000003,-0.002506250000000059,0.0017374999999999652
0.9440000000000001,1.0,8.697875,-4.341375,3.05455,-0.08222031250000003,-0.002559375000000059,0.0017062499999999652
0.9450000000000001,1.0,8.6978,-4.341600000000001,3.0544,-0.08224375000000003,-0.0026125000000000592,0.0016749999999999654
0.9460000000000001,1.0,8.697725,-4.341825,3.0542499999999997,-0.08226718750000003,-0.0026656250000000594,0.0016437499999999653
0.9470000000000001,1.0,8.69765,-4.34205,3.0540999999999996,-0.08229062500000003,-0.0027187500000000592,0.0016124999999999653
0.9480000000000001,1.0,8.697575,-4.342275,3.05395,-0.08231406250000002,-0.0027718750000000594,0.0015812499999999653
0.9490000000000001,1.0,8.6975,-4.3425,3.0538,-0.08233750000000002,-0.0028250000000000592,0.0015499999999999653
0.9500000000000001,1.0,8.697425,-4.342725000000001,3.0536499999999998,-0.08236093750000002,-0.0028781250000000595,0.0015187499999999652
0.9510000000000001,1.0,8.69735,-4.34295,3.0534999999999997,-0.08238437500000002,-0.0029312500000000592,0.0014874999999999652
0.9520000000000001,1.0,8.697275,-4.3431750000000005,3.0533499999999996,-0.08240781250000002,-0.0029843750000000595,0.0014562499999999654
0.9530000000000001,1.0,8.6972,-4.3434,3.0532,-0.08243125000000003,-0.0030375000000000592,0.0014249999999999654
0.9540000000000001,1.0,8.697125,-4.343625,3.05305,-0.08245468750000003,-0.0030906250000000595,0.0013937499999999653
0.9550000000000001,1.0,8.69705,-4.343850000000001,3.0528999999999997,-0.08247812500000003,-0.0031437500000000593,0.0013624999999999653
0.9560000000000001,1.0,8.696975,-4.344075,3.0527499999999996,-0.08250156250000003,-0.0031968750000000595,0.0013312499999999653
0.9570000000000001,1.0,8.6969,-4.3443000000000005,3.0525999999999995,-0.08252500000000003,-0.0032500000000000593,0.0012999999999999652
0.9580000000000001,1.0,8.696825,-4.344525,3.05245,-0.08254843750000003,-0.0033031250000000595,0.0012687499999999652
0.9590000000000001,1.0,8.69675,-4.34475,3.0523,-0.08257187500000003,-0.0033562500000000593,0.0012374999999999652
0.96,1.0,8.696675,-4.344975000000001,3.0521499999999997,-0.08259531250000002,-0.0034093750000000534,0.0012062499999999688
0.961,1.0,8.6966,-4.3452,3.0519999999999996,-0.08261875000000002,-0.003462500000000053,0.0011749999999999688
0.962,1.0,8.696525,-4.3454250000000005,3.0518499999999995,-0.08264218750000002,-0.0035156250000000534,0.0011437499999999688
0.963,1.0,8.69645,-4.34565,3.0517,-0.08266562500000002,-0.003568750000000053,0.0011124999999999688
0.964,1.0,8.696375,-4.345875,3.0515499999999998,-0.08268906250000002,-0.0036218750000000534,0.0010812499999999687
0.965,1.0,8.6963,-4.346100000000001,3.0513999999999997,-0.08271250000000002,-0.0036750000000000532,0.0010499999999999687
0.966,1.0,8.696225,-4.346325,3.0512499999999996,-0.08273593750000002,-0.0037281250000000534,0.0010187499999999687
0.967,1.0,8.696150000000001,-4.346550000000001,3.0510999999999995,-0.08275937500000002,-0.0037812500000000532,0.0009874999999999687
0.968,1.0,8.696075,-4.346775,3.05095,-0.08278281250000002,-0.0038343750000000535,0.0009562499999999688
0.969,1.0,8.696,-4.347,3.0507999999999997,-0.08280625000000003,-0.0038875000000000532,0.0009249999999999688
0.97,1.0,8.695925,-4.347225,3.0506499999999996,-0.08282968750000003,-0.0039406250000000535,0.0008937499999999688
0.971,1.0,8.69585,-4.34745,3.0504999999999995,-0.08285312500000003,-0.003993750000000053,0.0008624999999999688
0.972,1.0,8.695775000000001,-4.347675000000001,3.0503499999999995,-0.08287656250000003,-0.004046875000000053,0.0008312499999999687
0.973,1.0,8.6957,-4.3479,3.0502,-0.08289999999999999,-0.004099999999999955,0.0008000000000000141
0.974,1.0,8.695775000000001,-4.3479,3.0500499999999997,-0.08288124999999998,-0.004054687499999955,0.0008140625000000141
0.975,1.0,8.69585,-4.3479,3.0498999999999996,-0.08286249999999998,-0.004009374999999955,0.0008281250000000141
0.976,1.0,8.695925,-4.3479,3.0497499999999995,-0.08284374999999998,-0.0039640624999999555,0.000842187500000014
0.977,1.0,8.696,-4.3479,3.0496,-0.08282499999999998,-0.003918749999999955,0.0008562500000000141
0.978,1.0,8.696075,-4.3479,3.0494499999999998,-0.08280624999999998,-0.003873437499999955,0.0008703125000000141
0.979,1.0,8.696150000000001,-4.3479,3.0492999999999997,-0.08278749999999999,-0.003828124999999955,0.0008843750000000141
0.98,1.0,8.696225,-4.3479,3.0491499999999996,-0.08276874999999999,-0.003782812499999955,0.000898437500000014
0.981,1.0,8.6963,-4.3479,3.0489999999999995,-0.08274999999999998,-0.003737499999999955,0.0009125000000000141
0.982,1.0,8.696375,-4.3479,3.04885,-0.08273124999999998,-0.003692187499999955,0.0009265625000000141
0.983,1.0,8.69645,-4.3479,3.0486999999999997,-0.08271249999999998,-0.003646874999999955,0.000940625000000014
