Time,Sensor ID,Accel X (m/s^2),Accel Y (m/s^2),Accel Z (m/s^2),Gyro X (rad/s),Gyro Y (rad/s),Gyro Z (rad/s)
0.0,1.0,9.1219,-2.466,3.5338,-0.0405,-0.0262,0.0312
0.001,1.0,9.122009923664121,-2.4659633587786263,3.5337274809160304,-0.04050229007633588,-0.02620610687022901,0.03118854961832061
0.002,1.0,9.122119847328245,-2.465926717557252,3.533654961832061,-0.040504580152671756,-0.026212213740458016,0.03117709923664122
0.003,1.0,9.122229770992366,-2.465890076335878,3.5335824427480915,-0.04050687022900763,-0.026218320610687025,0.03116564885496183
0.004,1.0,9.122339694656489,-2.465853435114504,3.533509923664122,-0.04050916030534351,-0.02622442748091603,0.031154198473282442
0.005,1.0,9.12244961832061,-2.46581679389313,3.5334374045801527,-0.040511450381679394,-0.02623053435114504,0.031142748091603053
0.006,1.0,9.122559541984733,-2.4657801526717558,3.533364885496183,-0.04051374045801527,-0.026236641221374046,0.031131297709923664
0.007,1.0,9.122669465648855,-2.465743511450382,3.533292366412214,-0.04051603053435115,-0.026242748091603055,0.031119847328244275
0.008,1.0,9.122779389312978,-2.465706870229008,3.5332198473282443,-0.040518320610687025,-0.02624885496183206,0.031108396946564885
0.009000000000000001,1.0,9.1228893129771,-2.4656702290076336,3.5331473282442745,-0.0405206106870229,-0.02625496183206107,0.031096946564885496
0.01,1.0,9.122999236641222,-2.4656335877862596,3.533074809160305,-0.04052290076335878,-0.02626106870229008,0.031085496183206107
0.011,1.0,9.123109160305344,-2.4655969465648857,3.5330022900763356,-0.04052519083969466,-0.026267175572519084,0.031074045801526718
0.012,1.0,9.123219083969465,-2.465560305343512,3.532929770992366,-0.040527480916030534,-0.026273282442748094,0.03106259541984733
0.013000000000000001,1.0,9.123329007633588,-2.4655236641221374,3.5328572519083967,-0.04052977099236641,-0.0262793893129771,0.031051145038167936
0.014,1.0,9.12343893129771,-2.4654870229007635,3.5327847328244273,-0.04053206106870229,-0.02628549618320611,0.031039694656488547
0.015,1.0,9.123548854961832,-2.4654503816793896,3.532712213740458,-0.04053435114503817,-0.026291603053435114,0.031028244274809158
0.016,1.0,9.123658778625954,-2.465413740458015,3.5326396946564884,-0.04053664122137405,-0.026297709923664123,0.03101679389312977
0.017,1.0,9.123768702290077,-2.4653770992366413,3.532567175572519,-0.040538931297709926,-0.02630381679389313,0.03100534351145038
0.018000000000000002,1.0,9.123878625954198,-2.4653404580152674,3.5324946564885495,-0.040541221374045804,-0.026309923664122138,0.03099389312977099
0.019,1.0,9.123988549618321,-2.4653038167938934,3.53242213740458,-0.04054351145038168,-0.026316030534351147,0.0309824427480916
0.02,1.0,9.124098473282443,-2.465267175572519,3.5323496183206107,-0.04054580152671756,-0.026322137404580153,0.030970992366412212
0.021,1.0,9.124208396946566,-2.465230534351145,3.5322770992366412,-0.040548091603053435,-0.026328244274809162,0.030959541984732823
0.022,1.0,9.124318320610687,-2.465193893129771,3.532204580152672,-0.04055038167938931,-0.026334351145038168,0.030948091603053434
0.023,1.0,9.12442824427481,-2.4651572519083973,3.5321320610687024,-0.04055267175572519,-0.026340458015267177,0.030936641221374045
0.024,1.0,9.124538167938931,-2.465120610687023,3.532059541984733,-0.04055496183206107,-0.026346564885496183,0.030925190839694656
0.025,1.0,9.124648091603053,-2.465083969465649,3.531987022900763,-0.04055725190839695,-0.026352671755725192,0.030913740458015267
0.026000000000000002,1.0,9.124758015267176,-2.465047328244275,3.5319145038167936,-0.04055954198473283,-0.026358778625954198,0.030902290076335878
0.027,1.0,9.124867938931297,-2.4650106870229007,3.531841984732824,-0.040561832061068705,-0.026364885496183207,0.03089083969465649
0.028,1.0,9.12497786259542,-2.464974045801527,3.5317694656488547,-0.04056412213740458,-0.026370992366412216,0.0308793893129771
0.029,1.0,9.125087786259542,-2.464937404580153,3.5316969465648853,-0.04056641221374046,-0.02637709923664122,0.03086793893129771
0.03,1.0,9.125197709923665,-2.464900763358779,3.531624427480916,-0.040568702290076336,-0.02638320610687023,0.03085648854961832
0.031,1.0,9.125307633587786,-2.4648641221374046,3.5315519083969464,-0.04057099236641221,-0.026389312977099236,0.030845038167938932
0.032,1.0,9.12541755725191,-2.4648274809160307,3.531479389312977,-0.04057328244274809,-0.026395419847328246,0.030833587786259543
0.033,1.0,9.12552748091603,-2.4647908396946567,3.5314068702290076,-0.040575572519083974,-0.02640152671755725,0.030822137404580154
0.034,1.0,9.125637404580154,-2.4647541984732824,3.531334351145038,-0.04057786259541985,-0.02640763358778626,0.030810687022900764
0.035,1.0,9.125747328244275,-2.4647175572519084,3.5312618320610687,-0.04058015267175573,-0.026413740458015266,0.030799236641221375
0.036000000000000004,1.0,9.125857251908396,-2.4646809160305345,3.5311893129770993,-0.040582442748091606,-0.026419847328244275,0.030787786259541986
0.037,1.0,9.12596717557252,-2.4646442748091606,3.53111679389313,-0.04058473282442748,-0.026425954198473284,0.030776335877862597
0.038,1.0,9.12607709923664,-2.4646076335877862,3.5310442748091604,-0.04058702290076336,-0.02643206106870229,0.030764885496183204
0.039,1.0,9.126187022900764,-2.4645709923664123,3.530971755725191,-0.04058931297709924,-0.0264381679389313,0.030753435114503815
0.04,1.0,9.126296946564885,-2.4645343511450384,3.5308992366412215,-0.040591603053435114,-0.026444274809160305,0.030741984732824426
0.041,1.0,9.126406870229008,-2.464497709923664,3.530826717557252,-0.04059389312977099,-0.026450381679389314,0.030730534351145037
0.042,1.0,9.12651679389313,-2.46446106870229,3.530754198473282,-0.04059618320610687,-0.02645648854961832,0.030719083969465648
0.043000000000000003,1.0,9.126626717557253,-2.464424427480916,3.5306816793893128,-0.04059847328244275,-0.02646259541984733,0.03070763358778626
0.044,1.0,9.126736641221374,-2.4643877862595422,3.5306091603053433,-0.04060076335877863,-0.026468702290076335,0.03069618320610687
0.045,1.0,9.126846564885497,-2.464351145038168,3.530536641221374,-0.04060305343511451,-0.026474809160305344,0.03068473282442748
0.046,1.0,9.126956488549618,-2.464314503816794,3.5304641221374045,-0.040605343511450384,-0.026480916030534353,0.03067328244274809
0.047,1.0,9.127066412213741,-2.46427786259542,3.530391603053435,-0.04060763358778626,-0.02648702290076336,0.030661832061068702
0.048,1.0,9.127176335877863,-2.4642412213740457,3.5303190839694656,-0.04060992366412214,-0.026493129770992368,0.030650381679389313
0.049,1.0,9.127286259541984,-2.4642045801526717,3.530246564885496,-0.040612213740458016,-0.026499236641221374,0.030638931297709924
0.05,1.0,9.127396183206107,-2.464167938931298,3.5301740458015267,-0.04061450381679389,-0.026505343511450383,0.030627480916030535
0.051000000000000004,1.0,9.127506106870229,-2.464131297709924,3.5301015267175573,-0.04061679389312977,-0.02651145038167939,0.030616030534351146
0.052000000000000005,1.0,9.127616030534352,-2.4640946564885495,3.530029007633588,-0.040619083969465654,-0.026517557251908398,0.030604580152671756
0.053,1.0,9.127725954198473,-2.4640580152671756,3.5299564885496184,-0.04062137404580153,-0.026523664122137403,0.030593129770992367
0.054,1.0,9.127835877862596,-2.4640213740458017,3.529883969465649,-0.04062366412213741,-0.026529770992366412,0.030581679389312978
0.055,1.0,9.127945801526717,-2.4639847328244273,3.5298114503816795,-0.040625954198473285,-0.026535877862595418,0.03057022900763359
0.056,1.0,9.12805572519084,-2.4639480916030534,3.52973893129771,-0.04062824427480916,-0.026541984732824427,0.0305587786259542
0.057,1.0,9.128165648854962,-2.4639114503816795,3.5296664122137407,-0.04063053435114504,-0.026548091603053436,0.03054732824427481
0.058,1.0,9.128275572519085,-2.4638748091603055,3.529593893129771,-0.04063282442748092,-0.026554198473282442,0.03053587786259542
0.059000000000000004,1.0,9.128385496183206,-2.463838167938931,3.5295213740458014,-0.040635114503816794,-0.02656030534351145,0.030524427480916033
0.06,1.0,9.128495419847328,-2.4638015267175573,3.529448854961832,-0.04063740458015267,-0.026566412213740457,0.030512977099236643
0.061,1.0,9.12860534351145,-2.4637648854961833,3.5293763358778625,-0.04063969465648855,-0.026572519083969466,0.030501526717557254
0.062,1.0,9.128715267175572,-2.463728244274809,3.529303816793893,-0.04064198473282443,-0.026578625954198472,0.030490076335877865
0.063,1.0,9.128825190839695,-2.463691603053435,3.5292312977099236,-0.04064427480916031,-0.02658473282442748,0.030478625954198472
0.064,1.0,9.128935114503816,-2.463654961832061,3.529158778625954,-0.040646564885496186,-0.026590839694656487,0.030467175572519083
0.065,1.0,9.12904503816794,-2.463618320610687,3.5290862595419847,-0.040648854961832064,-0.026596946564885496,0.030455725190839694
0.066,1.0,9.12915496183206,-2.463581679389313,3.5290137404580153,-0.04065114503816794,-0.026603053435114505,0.030444274809160305
0.067,1.0,9.129264885496184,-2.463545038167939,3.528941221374046,-0.04065343511450382,-0.02660916030534351,0.030432824427480916
0.068,1.0,9.129374809160305,-2.463508396946565,3.5288687022900764,-0.040655725190839695,-0.02661526717557252,0.030421374045801527
0.069,1.0,9.129484732824428,-2.463471755725191,3.528796183206107,-0.04065801526717557,-0.026621374045801525,0.030409923664122138
0.07,1.0,9.12959465648855,-2.4634351145038167,3.5287236641221376,-0.04066030534351145,-0.026627480916030535,0.03039847328244275
0.07100000000000001,1.0,9.129704580152673,-2.4633984732824428,3.528651145038168,-0.04066259541984733,-0.02663358778625954,0.03038702290076336
0.07200000000000001,1.0,9.129814503816794,-2.463361832061069,3.5285786259541987,-0.04066488549618321,-0.02663969465648855,0.03037557251908397
0.073,1.0,9.129924427480915,-2.4633251908396945,3.5285061068702293,-0.04066717557251909,-0.026645801526717555,0.03036412213740458
0.074,1.0,9.130034351145039,-2.4632885496183206,3.52843358778626,-0.040669465648854965,-0.026651908396946564,0.030352671755725192
0.075,1.0,9.13014427480916,-2.4632519083969466,3.52836106870229,-0.04067175572519084,-0.026658015267175574,0.030341221374045803
0.076,1.0,9.130254198473283,-2.4632152671755727,3.5282885496183205,-0.04067404580152672,-0.02666412213740458,0.030329770992366414
0.077,1.0,9.130364122137404,-2.4631786259541983,3.528216030534351,-0.040676335877862596,-0.02667022900763359,0.030318320610687025
0.078,1.0,9.130474045801527,-2.4631419847328244,3.5281435114503816,-0.04067862595419847,-0.026676335877862594,0.030306870229007635
0.079,1.0,9.130583969465649,-2.4631053435114505,3.528070992366412,-0.04068091603053435,-0.026682442748091603,0.030295419847328246
0.08,1.0,9.130693893129772,-2.463068702290076,3.5279984732824428,-0.040683206106870234,-0.02668854961832061,0.030283969465648857
0.081,1.0,9.130803816793893,-2.463032061068702,3.5279259541984733,-0.04068549618320611,-0.026694656488549618,0.030272519083969468
0.082,1.0,9.130913740458016,-2.4629954198473283,3.527853435114504,-0.04068778625954199,-0.026700763358778624,0.03026106870229008
0.083,1.0,9.131023664122138,-2.4629587786259544,3.5277809160305345,-0.040690076335877866,-0.026706870229007633,0.03024961832061069
0.084,1.0,9.131133587786259,-2.46292213740458,3.527708396946565,-0.04069236641221374,-0.026712977099236642,0.0302381679389313
0.085,1.0,9.131243511450382,-2.462885496183206,3.5276358778625956,-0.04069465648854962,-0.026719083969465648,0.03022671755725191
0.08600000000000001,1.0,9.131353435114503,-2.462848854961832,3.527563358778626,-0.0406969465648855,-0.026725190839694657,0.030215267175572522
0.08700000000000001,1.0,9.131463358778626,-2.462812213740458,3.5274908396946567,-0.040699236641221374,-0.026731297709923663,0.030203816793893133
0.088,1.0,9.131573282442748,-2.462775572519084,3.5274183206106873,-0.04070152671755725,-0.026737404580152672,0.03019236641221374
0.089,1.0,9.131683206106871,-2.46273893129771,3.527345801526718,-0.04070381679389313,-0.026743511450381677,0.03018091603053435
0.09,1.0,9.131793129770992,-2.462702290076336,3.5272732824427484,-0.04070610687022901,-0.026749618320610687,0.030169465648854962
0.091,1.0,9.131903053435115,-2.4626656488549616,3.5272007633587785,-0.04070839694656489,-0.026755725190839692,0.030158015267175573
0.092,1.0,9.132012977099237,-2.4626290076335877,3.527128244274809,-0.04071068702290077,-0.0267618320610687,0.030146564885496184
0.093,1.0,9.13212290076336,-2.462592366412214,3.5270557251908397,-0.040712977099236644,-0.02676793893129771,0.030135114503816795
0.094,1.0,9.132232824427481,-2.4625557251908394,3.52698320610687,-0.04071526717557252,-0.026774045801526716,0.030123664122137406
0.095,1.0,9.132342748091604,-2.4625190839694655,3.526910687022901,-0.0407175572519084,-0.026780152671755725,0.030112213740458017
0.096,1.0,9.132452671755726,-2.4624824427480916,3.5268381679389313,-0.040719847328244275,-0.02678625954198473,0.030100763358778627
0.097,1.0,9.132562595419847,-2.4624458015267177,3.526765648854962,-0.04072213740458015,-0.02679236641221374,0.03008931297709924
0.098,1.0,9.13267251908397,-2.4624091603053433,3.5266931297709925,-0.04072442748091603,-0.026798473282442746,0.03007786259541985
0.099,1.0,9.132782442748091,-2.4623725190839694,3.526620610687023,-0.040726717557251914,-0.026804580152671755,0.03006641221374046
0.1,1.0,9.132892366412214,-2.4623358778625954,3.5265480916030536,-0.04072900763358779,-0.02681068702290076,0.03005496183206107
0.101,1.0,9.133002290076336,-2.462299236641221,3.526475572519084,-0.04073129770992367,-0.02681679389312977,0.030043511450381682
0.10200000000000001,1.0,9.133112213740459,-2.462262595419847,3.5264030534351147,-0.040733587786259545,-0.02682290076335878,0.030032061068702293
0.10300000000000001,1.0,9.13322213740458,-2.4622259541984732,3.5263305343511453,-0.04073587786259542,-0.026829007633587785,0.030020610687022904
0.10400000000000001,1.0,9.133332061068703,-2.4621893129770993,3.526258015267176,-0.0407381679389313,-0.026835114503816794,0.030009160305343514
0.105,1.0,9.133441984732825,-2.462152671755725,3.5261854961832064,-0.04074045801526718,-0.0268412213740458,0.029997709923664125
0.106,1.0,9.133551908396948,-2.462116030534351,3.526112977099237,-0.040742748091603054,-0.02684732824427481,0.029986259541984736
0.107,1.0,9.133661832061069,-2.462079389312977,3.526040458015267,-0.04074503816793893,-0.026853435114503815,0.029974809160305347
0.108,1.0,9.13377175572519,-2.462042748091603,3.5259679389312977,-0.04074732824427481,-0.026859541984732824,0.029963358778625958
0.109,1.0,9.133881679389313,-2.462006106870229,3.5258954198473282,-0.04074961832061069,-0.02686564885496183,0.02995190839694657
0.11,1.0,9.133991603053435,-2.461969465648855,3.525822900763359,-0.04075190839694657,-0.02687175572519084,0.02994045801526718
0.111,1.0,9.134101526717558,-2.461932824427481,3.5257503816793894,-0.040754198473282446,-0.026877862595419848,0.02992900763358779
0.112,1.0,9.13421145038168,-2.4618961832061066,3.52567786259542,-0.040756488549618324,-0.026883969465648853,0.0299175572519084
0.113,1.0,9.134321374045802,-2.4618595419847327,3.5256053435114505,-0.0407587786259542,-0.026890076335877863,0.02990610687022901
0.114,1.0,9.134431297709924,-2.4618229007633587,3.525532824427481,-0.04076106870229008,-0.02689618320610687,0.02989465648854962
0.115,1.0,9.134541221374047,-2.461786259541985,3.5254603053435116,-0.040763358778625955,-0.026902290076335877,0.02988320610687023
0.116,1.0,9.134651145038168,-2.4617496183206105,3.525387786259542,-0.04076564885496183,-0.026908396946564883,0.02987175572519084
0.117,1.0,9.134761068702291,-2.4617129770992365,3.5253152671755728,-0.04076793893129771,-0.026914503816793892,0.029860305343511452
0.11800000000000001,1.0,9.134870992366412,-2.4616763358778626,3.5252427480916033,-0.04077022900763359,-0.026920610687022898,0.029848854961832063
0.11900000000000001,1.0,9.134980916030534,-2.4616396946564882,3.525170229007634,-0.04077251908396947,-0.026926717557251907,0.029837404580152674
0.12,1.0,9.135090839694657,-2.4616030534351143,3.5250977099236644,-0.04077480916030535,-0.026932824427480913,0.029825954198473285
0.121,1.0,9.135200763358778,-2.4615664122137404,3.525025190839695,-0.040777099236641225,-0.026938931297709922,0.029814503816793896
0.122,1.0,9.135310687022901,-2.4615297709923665,3.5249526717557256,-0.0407793893129771,-0.02694503816793893,0.029803053435114506
0.123,1.0,9.135420610687023,-2.461493129770992,3.524880152671756,-0.04078167938931298,-0.026951145038167937,0.029791603053435117
0.124,1.0,9.135530534351146,-2.461456488549618,3.5248076335877863,-0.040783969465648856,-0.026957251908396946,0.029780152671755728
0.125,1.0,9.135640458015267,-2.4614198473282443,3.524735114503817,-0.04078625954198473,-0.02696335877862595,0.02976870229007634
0.126,1.0,9.13575038167939,-2.46138320610687,3.5246625954198474,-0.04078854961832061,-0.02696946564885496,0.02975725190839695
0.127,1.0,9.135860305343511,-2.461346564885496,3.524590076335878,-0.040790839694656494,-0.026975572519083967,0.02974580152671756
0.128,1.0,9.135970229007635,-2.461309923664122,3.5245175572519085,-0.04079312977099237,-0.026981679389312976,0.02973435114503817
0.129,1.0,9.136080152671756,-2.461273282442748,3.524445038167939,-0.04079541984732825,-0.026987786259541985,0.029722900763358782
0.13,1.0,9.136190076335879,-2.4612366412213738,3.5243725190839696,-0.040797709923664126,-0.02699389312977099,0.029711450381679393
0.131,1.0,9.1363,-2.4612,3.5243,-0.0408,-0.027,0.029700000000000004
0.132,1.0,9.136190076335879,-2.4610908396946565,3.524336641221374,-0.04079847328244275,-0.027020610687022897,0.029697709923664124
0.133,1.0,9.136080152671756,-2.4609816793893127,3.5243732824427485,-0.0407969465648855,-0.027041221374045795,0.029695419847328246
0.134,1.0,9.135970229007635,-2.4608725190839693,3.5244099236641224,-0.04079541984732825,-0.027061832061068696,0.02969312977099237
0.135,1.0,9.135860305343511,-2.460763358778626,3.5244465648854963,-0.040793893129771,-0.027082442748091597,0.02969083969465649
0.136,1.0,9.13575038167939,-2.460654198473282,3.5244832061068703,-0.040792366412213746,-0.0271030534351145,0.02968854961832061
0.137,1.0,9.135640458015267,-2.460545038167939,3.5245198473282446,-0.040790839694656494,-0.0271236641221374,0.029686259541984734
0.138,1.0,9.135530534351146,-2.4604358778625954,3.5245564885496186,-0.04078931297709924,-0.0271442748091603,0.029683969465648857
0.139,1.0,9.135420610687023,-2.4603267175572516,3.5245931297709925,-0.040787786259541985,-0.027164885496183202,0.029681679389312977
0.14,1.0,9.135310687022901,-2.4602175572519083,3.5246297709923664,-0.04078625954198473,-0.027185496183206103,0.0296793893129771
0.14100000000000001,1.0,9.135200763358778,-2.460108396946565,3.5246664122137408,-0.04078473282442748,-0.027206106870229004,0.029677099236641222
0.14200000000000002,1.0,9.135090839694657,-2.459999236641221,3.5247030534351147,-0.04078320610687023,-0.027226717557251902,0.029674809160305345
0.14300000000000002,1.0,9.134980916030536,-2.4598900763358778,3.5247396946564886,-0.04078167938931298,-0.027247328244274803,0.029672519083969468
0.14400000000000002,1.0,9.134870992366412,-2.4597809160305344,3.524776335877863,-0.04078015267175573,-0.027267938931297704,0.029670229007633588
0.145,1.0,9.134761068702291,-2.4596717557251906,3.524812977099237,-0.040778625954198476,-0.027288549618320605,0.02966793893129771
0.146,1.0,9.134651145038168,-2.4595625954198472,3.524849618320611,-0.040777099236641225,-0.027309160305343506,0.029665648854961833
0.147,1.0,9.134541221374047,-2.459453435114504,3.5248862595419848,-0.04077557251908397,-0.027329770992366408,0.029663358778625956
0.148,1.0,9.134431297709924,-2.45934427480916,3.524922900763359,-0.04077404580152672,-0.02735038167938931,0.02966106870229008
0.149,1.0,9.134321374045802,-2.4592351145038167,3.524959541984733,-0.04077251908396947,-0.02737099236641221,0.0296587786259542
0.15,1.0,9.13421145038168,-2.4591259541984734,3.524996183206107,-0.04077099236641222,-0.027391603053435108,0.02965648854961832
0.151,1.0,9.134101526717558,-2.4590167938931295,3.525032824427481,-0.04076946564885497,-0.02741221374045801,0.029654198473282444
0.152,1.0,9.133991603053435,-2.458907633587786,3.5250694656488553,-0.04076793893129771,-0.02743282442748091,0.029651908396946567
0.153,1.0,9.133881679389313,-2.458798473282443,3.525106106870229,-0.04076641221374046,-0.02745343511450381,0.029649618320610686
0.154,1.0,9.13377175572519,-2.458689312977099,3.525142748091603,-0.040764885496183206,-0.027474045801526712,0.02964732824427481
0.155,1.0,9.133661832061069,-2.4585801526717557,3.5251793893129775,-0.040763358778625955,-0.027494656488549613,0.029645038167938932
0.156,1.0,9.133551908396948,-2.458470992366412,3.5252160305343514,-0.040761832061068703,-0.027515267175572514,0.029642748091603055
0.157,1.0,9.133441984732825,-2.4583618320610685,3.5252526717557253,-0.04076030534351145,-0.027535877862595416,0.029640458015267178
0.158,1.0,9.133332061068703,-2.458252671755725,3.5252893129770992,-0.0407587786259542,-0.027556488549618313,0.029638167938931297
0.159,1.0,9.13322213740458,-2.4581435114503813,3.5253259541984736,-0.04075725190839695,-0.027577099236641214,0.02963587786259542
0.16,1.0,9.133112213740459,-2.458034351145038,3.5253625954198475,-0.0407557251908397,-0.027597709923664115,0.029633587786259543
0.161,1.0,9.133002290076336,-2.4579251908396946,3.5253992366412215,-0.040754198473282446,-0.027618320610687017,0.029631297709923666
0.162,1.0,9.132892366412214,-2.457816030534351,3.5254358778625954,-0.040752671755725195,-0.027638931297709918,0.02962900763358779
0.163,1.0,9.132782442748091,-2.4577068702290075,3.5254725190839697,-0.040751145038167944,-0.02765954198473282,0.029626717557251908
0.164,1.0,9.13267251908397,-2.457597709923664,3.5255091603053437,-0.04074961832061069,-0.02768015267175572,0.02962442748091603
0.165,1.0,9.132562595419847,-2.4574885496183203,3.5255458015267176,-0.040748091603053434,-0.02770076335877862,0.029622137404580154
0.166,1.0,9.132452671755726,-2.457379389312977,3.525582442748092,-0.04074656488549618,-0.027721374045801522,0.029619847328244277
0.167,1.0,9.132342748091604,-2.4572702290076336,3.525619083969466,-0.04074503816793893,-0.027741984732824423,0.029617557251908396
0.168,1.0,9.132232824427481,-2.45716106870229,3.52565572519084,-0.04074351145038168,-0.02776259541984732,0.02961526717557252
0.169,1.0,9.13212290076336,-2.4570519083969464,3.5256923664122137,-0.04074198473282443,-0.027783206106870222,0.029612977099236642
0.17,1.0,9.132012977099237,-2.456942748091603,3.525729007633588,-0.04074045801526718,-0.027803816793893123,0.029610687022900765
0.171,1.0,9.131903053435115,-2.4568335877862593,3.525765648854962,-0.040738931297709925,-0.027824427480916025,0.029608396946564888
0.17200000000000001,1.0,9.131793129770992,-2.456724427480916,3.525802290076336,-0.040737404580152674,-0.027845038167938926,0.029606106870229007
0.17300000000000001,1.0,9.131683206106871,-2.4566152671755725,3.5258389312977103,-0.04073587786259542,-0.027865648854961827,0.02960381679389313
0.17400000000000002,1.0,9.131573282442748,-2.4565061068702287,3.5258755725190842,-0.04073435114503817,-0.027886259541984728,0.029601526717557253
0.17500000000000002,1.0,9.131463358778626,-2.4563969465648854,3.525912213740458,-0.04073282442748092,-0.02790687022900763,0.029599236641221376
0.176,1.0,9.131353435114503,-2.456287786259542,3.525948854961832,-0.04073129770992367,-0.027927480916030527,0.0295969465648855
0.177,1.0,9.131243511450382,-2.4561786259541982,3.5259854961832064,-0.04072977099236642,-0.027948091603053428,0.029594656488549618
0.178,1.0,9.131133587786259,-2.456069465648855,3.5260221374045804,-0.04072824427480916,-0.02796870229007633,0.02959236641221374
0.179,1.0,9.131023664122138,-2.4559603053435115,3.5260587786259543,-0.04072671755725191,-0.02798931297709923,0.029590076335877864
0.18,1.0,9.130913740458016,-2.4558511450381677,3.526095419847328,-0.040725190839694655,-0.02800992366412213,0.029587786259541986
0.181,1.0,9.130803816793893,-2.4557419847328243,3.5261320610687026,-0.040723664122137404,-0.028030534351145033,0.02958549618320611
0.182,1.0,9.130693893129772,-2.455632824427481,3.5261687022900765,-0.04072213740458015,-0.028051145038167934,0.02958320610687023
0.183,1.0,9.130583969465649,-2.455523664122137,3.5262053435114504,-0.0407206106870229,-0.028071755725190835,0.02958091603053435
0.184,1.0,9.130474045801527,-2.455414503816794,3.526241984732825,-0.04071908396946565,-0.028092366412213732,0.029578625954198474
0.185,1.0,9.130364122137404,-2.4553053435114505,3.5262786259541987,-0.0407175572519084,-0.028112977099236634,0.029576335877862597
0.186,1.0,9.130254198473283,-2.4551961832061067,3.5263152671755726,-0.04071603053435115,-0.028133587786259535,0.029574045801526717
0.187,1.0,9.13014427480916,-2.4550870229007633,3.5263519083969466,-0.040714503816793896,-0.028154198473282436,0.02957175572519084
0.188,1.0,9.130034351145039,-2.4549778625954195,3.526388549618321,-0.040712977099236644,-0.028174809160305337,0.029569465648854962
0.189,1.0,9.129924427480915,-2.454868702290076,3.526425190839695,-0.04071145038167939,-0.028195419847328238,0.029567175572519085
0.19,1.0,9.129814503816794,-2.454759541984733,3.526461832061069,-0.04070992366412214,-0.02821603053435114,0.029564885496183208
0.191,1.0,9.129704580152673,-2.454650381679389,3.5264984732824427,-0.04070839694656488,-0.02823664122137404,0.029562595419847328
0.192,1.0,9.12959465648855,-2.4545412213740456,3.526535114503817,-0.04070687022900763,-0.02825725190839694,0.02956030534351145
0.193,1.0,9.129484732824428,-2.4544320610687023,3.526571755725191,-0.04070534351145038,-0.02827786259541984,0.029558015267175573
0.194,1.0,9.129374809160305,-2.4543229007633585,3.526608396946565,-0.04070381679389313,-0.02829847328244274,0.029555725190839696
0.195,1.0,9.129264885496184,-2.454213740458015,3.5266450381679393,-0.04070229007633588,-0.02831908396946564,0.02955343511450382
0.196,1.0,9.12915496183206,-2.4541045801526717,3.526681679389313,-0.040700763358778626,-0.028339694656488543,0.02955114503816794
0.197,1.0,9.12904503816794,-2.453995419847328,3.526718320610687,-0.040699236641221374,-0.028360305343511444,0.02954885496183206
0.198,1.0,9.128935114503816,-2.4538862595419846,3.526754961832061,-0.04069770992366412,-0.028380916030534345,0.029546564885496184
0.199,1.0,9.128825190839695,-2.4537770992366412,3.5267916030534354,-0.04069618320610687,-0.028401526717557246,0.029544274809160307
0.2,1.0,9.128715267175572,-2.4536679389312974,3.5268282442748093,-0.04069465648854962,-0.028422137404580147,0.029541984732824426
0.201,1.0,9.12860534351145,-2.453558778625954,3.5268648854961833,-0.04069312977099237,-0.02844274809160305,0.02953969465648855
0.202,1.0,9.12849541984733,-2.4534496183206107,3.526901526717557,-0.04069160305343512,-0.028463358778625946,0.029537404580152672
0.203,1.0,9.128385496183206,-2.453340458015267,3.5269381679389316,-0.040690076335877866,-0.028483969465648847,0.029535114503816795
0.20400000000000001,1.0,9.128275572519085,-2.4532312977099235,3.5269748091603055,-0.040688549618320614,-0.02850458015267175,0.029532824427480918
0.20500000000000002,1.0,9.128165648854962,-2.45312213740458,3.5270114503816794,-0.040687022900763356,-0.02852519083969465,0.029530534351145037
0.20600000000000002,1.0,9.12805572519084,-2.4530129770992364,3.5270480916030538,-0.040685496183206105,-0.02854580152671755,0.02952824427480916
0.20700000000000002,1.0,9.127945801526717,-2.452903816793893,3.5270847328244277,-0.04068396946564885,-0.028566412213740452,0.029525954198473283
0.20800000000000002,1.0,9.127835877862596,-2.4527946564885497,3.5271213740458016,-0.0406824427480916,-0.028587022900763353,0.029523664122137406
0.209,1.0,9.127725954198473,-2.452685496183206,3.5271580152671755,-0.04068091603053435,-0.02860763358778625,0.02952137404580153
0.21,1.0,9.127616030534352,-2.4525763358778625,3.52719465648855,-0.0406793893129771,-0.028628244274809152,0.029519083969465648
0.211,1.0,9.127506106870229,-2.452467175572519,3.527231297709924,-0.04067786259541985,-0.028648854961832053,0.02951679389312977
0.212,1.0,9.127396183206107,-2.4523580152671753,3.5272679389312978,-0.040676335877862596,-0.028669465648854954,0.029514503816793894
0.213,1.0,9.127286259541984,-2.452248854961832,3.527304580152672,-0.040674809160305345,-0.028690076335877855,0.029512213740458017
0.214,1.0,9.127176335877863,-2.4521396946564886,3.527341221374046,-0.04067328244274809,-0.028710687022900756,0.02950992366412214
0.215,1.0,9.127066412213741,-2.452030534351145,3.52737786259542,-0.04067175572519084,-0.028731297709923657,0.02950763358778626
0.216,1.0,9.126956488549618,-2.4519213740458015,3.527414503816794,-0.04067022900763359,-0.02875190839694656,0.029505343511450382
0.217,1.0,9.126846564885497,-2.451812213740458,3.5274511450381683,-0.04066870229007634,-0.02877251908396946,0.029503053435114505
0.218,1.0,9.126736641221374,-2.4517030534351143,3.527487786259542,-0.04066717557251908,-0.028793129770992357,0.029500763358778628
0.219,1.0,9.126626717557253,-2.451593893129771,3.527524427480916,-0.04066564885496183,-0.02881374045801526,0.029498473282442747
0.22,1.0,9.12651679389313,-2.4514847328244276,3.52756106870229,-0.04066412213740458,-0.02883435114503816,0.02949618320610687
0.221,1.0,9.126406870229008,-2.451375572519084,3.5275977099236644,-0.040662595419847326,-0.02885496183206106,0.029493893129770993
0.222,1.0,9.126296946564885,-2.4512664122137404,3.5276343511450383,-0.040661068702290075,-0.028875572519083962,0.029491603053435116
0.223,1.0,9.126187022900764,-2.4511572519083966,3.5276709923664122,-0.040659541984732823,-0.028896183206106863,0.02948931297709924
0.224,1.0,9.12607709923664,-2.4510480916030533,3.5277076335877866,-0.04065801526717557,-0.028916793893129764,0.029487022900763358
0.225,1.0,9.12596717557252,-2.45093893129771,3.5277442748091605,-0.04065648854961832,-0.028937404580152665,0.02948473282442748
0.226,1.0,9.125857251908398,-2.450829770992366,3.5277809160305345,-0.04065496183206107,-0.028958015267175567,0.029482442748091604
0.227,1.0,9.125747328244275,-2.4507206106870227,3.5278175572519084,-0.04065343511450382,-0.028978625954198464,0.029480152671755726
0.228,1.0,9.125637404580154,-2.4506114503816794,3.5278541984732827,-0.040651908396946566,-0.028999236641221365,0.02947786259541985
0.229,1.0,9.12552748091603,-2.4505022900763356,3.5278908396946567,-0.040650381679389315,-0.029019847328244266,0.02947557251908397
0.23,1.0,9.12541755725191,-2.450393129770992,3.5279274809160306,-0.040648854961832064,-0.029040458015267168,0.02947328244274809
0.231,1.0,9.125307633587786,-2.450283969465649,3.5279641221374045,-0.040647328244274805,-0.02906106870229007,0.029470992366412214
0.232,1.0,9.125197709923665,-2.450174809160305,3.528000763358779,-0.040645801526717554,-0.02908167938931297,0.029468702290076337
0.233,1.0,9.125087786259542,-2.4500656488549617,3.528037404580153,-0.0406442748091603,-0.02910229007633587,0.029466412213740457
0.234,1.0,9.12497786259542,-2.4499564885496183,3.5280740458015267,-0.04064274809160305,-0.029122900763358772,0.02946412213740458
0.23500000000000001,1.0,9.124867938931297,-2.4498473282442745,3.528110687022901,-0.0406412213740458,-0.029143511450381673,0.029461832061068702
0.23600000000000002,1.0,9.124758015267176,-2.449738167938931,3.528147328244275,-0.04063969465648855,-0.029164122137404574,0.029459541984732825
0.23700000000000002,1.0,9.124648091603053,-2.449629007633588,3.528183969465649,-0.0406381679389313,-0.029184732824427472,0.029457251908396948
0.23800000000000002,1.0,9.124538167938931,-2.449519847328244,3.528220610687023,-0.040636641221374045,-0.029205343511450373,0.029454961832061068
0.23900000000000002,1.0,9.12442824427481,-2.4494106870229007,3.5282572519083972,-0.040635114503816794,-0.029225954198473274,0.02945267175572519
0.24,1.0,9.124318320610687,-2.4493015267175573,3.528293893129771,-0.04063358778625954,-0.029246564885496176,0.029450381679389313
0.241,1.0,9.124208396946566,-2.4491923664122135,3.528330534351145,-0.04063206106870229,-0.029267175572519077,0.029448091603053436
0.242,1.0,9.124098473282443,-2.44908320610687,3.528367175572519,-0.04063053435114504,-0.029287786259541978,0.02944580152671756
0.243,1.0,9.123988549618321,-2.4489740458015268,3.5284038167938934,-0.04062900763358779,-0.029308396946564876,0.02944351145038168
0.244,1.0,9.123878625954198,-2.448864885496183,3.5284404580152673,-0.04062748091603053,-0.029329007633587777,0.0294412213740458
0.245,1.0,9.123768702290077,-2.4487557251908396,3.528477099236641,-0.04062595419847328,-0.029349618320610678,0.029438931297709924
0.246,1.0,9.123658778625954,-2.4486465648854963,3.5285137404580156,-0.04062442748091603,-0.02937022900763358,0.029436641221374047
0.247,1.0,9.123548854961832,-2.4485374045801525,3.5285503816793895,-0.040622900763358775,-0.02939083969465648,0.029434351145038166
0.248,1.0,9.12343893129771,-2.448428244274809,3.5285870229007634,-0.040621374045801524,-0.02941145038167938,0.02943206106870229
0.249,1.0,9.123329007633588,-2.4483190839694657,3.5286236641221373,-0.04061984732824427,-0.029432061068702282,0.029429770992366412
0.25,1.0,9.123219083969467,-2.448209923664122,3.5286603053435117,-0.04061832061068702,-0.029452671755725184,0.029427480916030535
0.251,1.0,9.123109160305344,-2.4481007633587786,3.5286969465648856,-0.04061679389312977,-0.029473282442748085,0.029425190839694658
0.252,1.0,9.122999236641222,-2.447991603053435,3.5287335877862596,-0.04061526717557252,-0.029493893129770986,0.029422900763358777
0.253,1.0,9.1228893129771,-2.4478824427480914,3.5287702290076335,-0.04061374045801527,-0.029514503816793883,0.0294206106870229
0.254,1.0,9.122779389312978,-2.447773282442748,3.528806870229008,-0.040612213740458016,-0.029535114503816785,0.029418320610687023
0.255,1.0,9.122669465648855,-2.4476641221374047,3.5288435114503818,-0.040610687022900764,-0.029555725190839686,0.029416030534351146
0.256,1.0,9.122559541984733,-2.447554961832061,3.5288801526717557,-0.04060916030534351,-0.029576335877862587,0.02941374045801527
0.257,1.0,9.12244961832061,-2.4474458015267175,3.52891679389313,-0.040607633587786254,-0.029596946564885488,0.029411450381679388
0.258,1.0,9.122339694656489,-2.4473366412213737,3.528953435114504,-0.040606106870229,-0.02961755725190839,0.02940916030534351
0.259,1.0,9.122229770992366,-2.4472274809160304,3.528990076335878,-0.04060458015267175,-0.02963816793893129,0.029406870229007634
0.26,1.0,9.122119847328245,-2.447118320610687,3.529026717557252,-0.0406030534351145,-0.02965877862595419,0.029404580152671757
0.261,1.0,9.122009923664121,-2.447009160305343,3.529063358778626,-0.04060152671755725,-0.02967938931297709,0.02940229007633588
0.262,1.0,9.1219,-2.4469,3.5291,-0.0406,-0.02969999999999999,0.0294
0.263,1.0,9.122046564885496,-2.446863358778626,3.529063358778626,-0.04060839694656488,-0.02970916030534351,0.029403053435114502
0.264,1.0,9.122193129770993,-2.4468267175572516,3.529026717557252,-0.04061679389312976,-0.02971832061068702,0.029406106870229005
0.265,1.0,9.122339694656489,-2.4467900763358776,3.528990076335878,-0.04062519083969465,-0.02972748091603053,0.029409160305343508
0.266,1.0,9.122486259541985,-2.4467534351145037,3.528953435114504,-0.040633587786259535,-0.029736641221374042,0.029412213740458014
0.267,1.0,9.12263282442748,-2.44671679389313,3.52891679389313,-0.04064198473282442,-0.029745801526717554,0.029415267175572517
0.268,1.0,9.122779389312978,-2.4466801526717554,3.5288801526717557,-0.04065038167938931,-0.029754961832061066,0.02941832061068702
0.269,1.0,9.122925954198474,-2.4466435114503815,3.5288435114503818,-0.04065877862595419,-0.029764122137404578,0.029421374045801526
0.27,1.0,9.12307251908397,-2.4466068702290076,3.528806870229008,-0.04066717557251908,-0.02977328244274809,0.02942442748091603
0.271,1.0,9.123219083969465,-2.4465702290076337,3.528770229007634,-0.04067557251908396,-0.0297824427480916,0.02942748091603053
0.272,1.0,9.123365648854962,-2.4465335877862593,3.5287335877862596,-0.040683969465648846,-0.02979160305343511,0.029430534351145034
0.273,1.0,9.123512213740458,-2.4464969465648854,3.5286969465648856,-0.040692366412213736,-0.029800763358778622,0.02943358778625954
0.274,1.0,9.123658778625954,-2.4464603053435114,3.5286603053435117,-0.04070076335877862,-0.029809923664122134,0.029436641221374044
0.275,1.0,9.123805343511451,-2.446423664122137,3.5286236641221373,-0.04070916030534351,-0.029819083969465646,0.029439694656488546
0.276,1.0,9.123951908396947,-2.446387022900763,3.5285870229007634,-0.04071755725190839,-0.02982824427480916,0.029442748091603053
0.277,1.0,9.124098473282443,-2.4463503816793892,3.5285503816793895,-0.040725954198473274,-0.029837404580152667,0.029445801526717556
0.278,1.0,9.124245038167938,-2.4463137404580153,3.5285137404580156,-0.040734351145038164,-0.02984656488549618,0.02944885496183206
0.279,1.0,9.124391603053436,-2.446277099236641,3.528477099236641,-0.04074274809160305,-0.02985572519083969,0.02945190839694656
0.28,1.0,9.124538167938931,-2.446240458015267,3.5284404580152673,-0.04075114503816793,-0.029864885496183203,0.029454961832061068
0.281,1.0,9.124684732824427,-2.446203816793893,3.5284038167938934,-0.04075954198473282,-0.029874045801526715,0.02945801526717557
0.28200000000000003,1.0,9.124831297709923,-2.446167175572519,3.5283671755725194,-0.0407679389312977,-0.029883206106870227,0.029461068702290073
0.28300000000000003,1.0,9.12497786259542,-2.446130534351145,3.528330534351145,-0.04077633587786259,-0.029892366412213735,0.02946412213740458
0.28400000000000003,1.0,9.125124427480916,-2.446093893129771,3.528293893129771,-0.040784732824427475,-0.029901526717557247,0.029467175572519082
0.28500000000000003,1.0,9.125270992366412,-2.446057251908397,3.5282572519083972,-0.04079312977099236,-0.02991068702290076,0.029470229007633585
0.28600000000000003,1.0,9.12541755725191,-2.4460206106870226,3.528220610687023,-0.04080152671755725,-0.02991984732824427,0.029473282442748088
0.28700000000000003,1.0,9.125564122137405,-2.4459839694656487,3.528183969465649,-0.04080992366412213,-0.029929007633587783,0.029476335877862594
0.28800000000000003,1.0,9.1257106870229,-2.4459473282442747,3.528147328244275,-0.04081832061068702,-0.029938167938931295,0.029479389312977097
0.289,1.0,9.125857251908396,-2.445910687022901,3.528110687022901,-0.0408267175572519,-0.029947328244274804,0.0294824427480916
0.29,1.0,9.126003816793894,-2.4458740458015265,3.5280740458015267,-0.040835114503816786,-0.029956488549618316,0.029485496183206103
0.291,1.0,9.12615038167939,-2.4458374045801525,3.528037404580153,-0.040843511450381675,-0.029965648854961828,0.02948854961832061
0.292,1.0,9.126296946564885,-2.4458007633587786,3.528000763358779,-0.04085190839694656,-0.02997480916030534,0.029491603053435112
0.293,1.0,9.12644351145038,-2.4457641221374047,3.527964122137405,-0.04086030534351144,-0.029983969465648852,0.029494656488549615
0.294,1.0,9.126590076335878,-2.4457274809160303,3.5279274809160306,-0.04086870229007633,-0.02999312977099236,0.02949770992366412
0.295,1.0,9.126736641221374,-2.4456908396946564,3.5278908396946567,-0.040877099236641214,-0.030002290076335873,0.029500763358778624
0.296,1.0,9.12688320610687,-2.4456541984732825,3.5278541984732827,-0.0408854961832061,-0.030011450381679385,0.029503816793893127
0.297,1.0,9.127029770992367,-2.445617557251908,3.5278175572519084,-0.040893893129770986,-0.030020610687022897,0.02950687022900763
0.298,1.0,9.127176335877863,-2.445580916030534,3.5277809160305345,-0.04090229007633587,-0.03002977099236641,0.029509923664122136
0.299,1.0,9.127322900763359,-2.4455442748091603,3.5277442748091605,-0.04091068702290076,-0.03003893129770992,0.02951297709923664
0.3,1.0,9.127469465648854,-2.4455076335877863,3.5277076335877866,-0.04091908396946564,-0.030048091603053433,0.029516030534351142
0.301,1.0,9.127616030534352,-2.445470992366412,3.5276709923664122,-0.04092748091603053,-0.03005725190839694,0.029519083969465648
0.302,1.0,9.127762595419847,-2.445434351145038,3.5276343511450383,-0.040935877862595414,-0.030066412213740453,0.02952213740458015
0.303,1.0,9.127909160305343,-2.445397709923664,3.5275977099236644,-0.0409442748091603,-0.030075572519083965,0.029525190839694654
0.304,1.0,9.128055725190839,-2.44536106870229,3.5275610687022905,-0.04095267175572519,-0.030084732824427477,0.029528244274809157
0.305,1.0,9.128202290076336,-2.445324427480916,3.527524427480916,-0.04096106870229007,-0.03009389312977099,0.029531297709923663
0.306,1.0,9.128348854961832,-2.445287786259542,3.527487786259542,-0.04096946564885495,-0.0301030534351145,0.029534351145038166
0.307,1.0,9.128495419847328,-2.445251145038168,3.5274511450381683,-0.04097786259541984,-0.03011221374045801,0.02953740458015267
0.308,1.0,9.128641984732825,-2.4452145038167936,3.527414503816794,-0.040986259541984725,-0.03012137404580152,0.029540458015267175
0.309,1.0,9.12878854961832,-2.4451778625954197,3.52737786259542,-0.040994656488549615,-0.030130534351145034,0.029543511450381678
0.31,1.0,9.128935114503816,-2.4451412213740458,3.527341221374046,-0.0410030534351145,-0.030139694656488546,0.02954656488549618
0.311,1.0,9.129081679389312,-2.445104580152672,3.527304580152672,-0.04101145038167938,-0.030148854961832058,0.029549618320610684
0.312,1.0,9.12922824427481,-2.4450679389312975,3.5272679389312978,-0.04101984732824427,-0.03015801526717557,0.02955267175572519
0.313,1.0,9.129374809160305,-2.4450312977099236,3.527231297709924,-0.04102824427480915,-0.030167175572519078,0.029555725190839693
0.314,1.0,9.129521374045801,-2.4449946564885496,3.52719465648855,-0.04103664122137404,-0.03017633587786259,0.029558778625954196
0.315,1.0,9.129667938931298,-2.4449580152671753,3.5271580152671755,-0.041045038167938926,-0.030185496183206102,0.0295618320610687
0.316,1.0,9.129814503816794,-2.4449213740458013,3.5271213740458016,-0.04105343511450381,-0.030194656488549614,0.029564885496183205
0.317,1.0,9.12996106870229,-2.4448847328244274,3.5270847328244277,-0.0410618320610687,-0.030203816793893126,0.029567938931297708
0.318,1.0,9.130107633587786,-2.4448480916030535,3.5270480916030538,-0.04107022900763358,-0.030212977099236638,0.02957099236641221
0.319,1.0,9.130254198473283,-2.444811450381679,3.5270114503816794,-0.04107862595419847,-0.030222137404580147,0.029574045801526717
0.32,1.0,9.130400763358779,-2.444774809160305,3.5269748091603055,-0.041087022900763354,-0.03023129770992366,0.02957709923664122
0.321,1.0,9.130547328244274,-2.4447381679389313,3.5269381679389316,-0.041095419847328236,-0.03024045801526717,0.029580152671755722
0.322,1.0,9.13069389312977,-2.4447015267175574,3.5269015267175576,-0.041103816793893126,-0.030249618320610683,0.029583206106870225
0.323,1.0,9.130840458015268,-2.444664885496183,3.5268648854961833,-0.04111221374045801,-0.030258778625954195,0.02958625954198473
0.324,1.0,9.130987022900763,-2.444628244274809,3.5268282442748093,-0.04112061068702289,-0.030267938931297707,0.029589312977099234
0.325,1.0,9.131133587786259,-2.444591603053435,3.5267916030534354,-0.04112900763358778,-0.030277099236641215,0.029592366412213737
0.326,1.0,9.131280152671756,-2.444554961832061,3.526754961832061,-0.041137404580152664,-0.030286259541984727,0.029595419847328244
0.327,1.0,9.131426717557252,-2.444518320610687,3.526718320610687,-0.041145801526717554,-0.03029541984732824,0.029598473282442746
0.328,1.0,9.131573282442748,-2.444481679389313,3.526681679389313,-0.04115419847328244,-0.03030458015267175,0.02960152671755725
0.329,1.0,9.131719847328243,-2.444445038167939,3.5266450381679393,-0.04116259541984732,-0.030313740458015263,0.029604580152671752
0.33,1.0,9.131866412213741,-2.4444083969465646,3.526608396946565,-0.04117099236641221,-0.030322900763358775,0.02960763358778626
0.331,1.0,9.132012977099237,-2.4443717557251907,3.526571755725191,-0.04117938931297709,-0.030332061068702284,0.02961068702290076
0.332,1.0,9.132159541984732,-2.444335114503817,3.526535114503817,-0.04118778625954198,-0.030341221374045796,0.029613740458015264
0.333,1.0,9.132306106870228,-2.444298473282443,3.526498473282443,-0.041196183206106865,-0.030350381679389308,0.02961679389312977
0.334,1.0,9.132452671755726,-2.4442618320610685,3.526461832061069,-0.04120458015267175,-0.03035954198473282,0.029619847328244273
0.335,1.0,9.132599236641221,-2.4442251908396946,3.526425190839695,-0.04121297709923664,-0.030368702290076332,0.029622900763358776
0.336,1.0,9.132745801526717,-2.4441885496183207,3.526388549618321,-0.04122137404580152,-0.030377862595419844,0.02962595419847328
0.337,1.0,9.132892366412214,-2.4441519083969463,3.5263519083969466,-0.04122977099236641,-0.030387022900763352,0.029629007633587785
0.338,1.0,9.13303893129771,-2.4441152671755724,3.5263152671755726,-0.04123816793893129,-0.030396183206106864,0.029632061068702288
0.339,1.0,9.133185496183206,-2.4440786259541984,3.5262786259541987,-0.041246564885496176,-0.030405343511450376,0.02963511450381679
0.34,1.0,9.133332061068701,-2.4440419847328245,3.526241984732825,-0.041254961832061066,-0.03041450381679389,0.029638167938931297
0.341,1.0,9.133478625954199,-2.44400534351145,3.5262053435114504,-0.04126335877862595,-0.0304236641221374,0.0296412213740458
0.342,1.0,9.133625190839695,-2.4439687022900762,3.5261687022900765,-0.04127175572519083,-0.030432824427480912,0.029644274809160303
0.343,1.0,9.13377175572519,-2.4439320610687023,3.5261320610687026,-0.04128015267175572,-0.030441984732824424,0.029647328244274806
0.34400000000000003,1.0,9.133918320610686,-2.4438954198473284,3.5260954198473287,-0.041288549618320604,-0.030451145038167933,0.029650381679389312
0.34500000000000003,1.0,9.134064885496183,-2.443858778625954,3.5260587786259543,-0.041296946564885494,-0.030460305343511445,0.029653435114503815
0.34600000000000003,1.0,9.13421145038168,-2.44382213740458,3.5260221374045804,-0.041305343511450376,-0.030469465648854957,0.029656488549618318
0.34700000000000003,1.0,9.134358015267175,-2.443785496183206,3.5259854961832064,-0.04131374045801526,-0.03047862595419847,0.02965954198473282
0.34800000000000003,1.0,9.134504580152672,-2.443748854961832,3.525948854961832,-0.04132213740458015,-0.03048778625954198,0.029662595419847327
0.34900000000000003,1.0,9.134651145038168,-2.443712213740458,3.525912213740458,-0.04133053435114503,-0.030496946564885493,0.02966564885496183
0.35000000000000003,1.0,9.134797709923664,-2.443675572519084,3.5258755725190842,-0.04133893129770992,-0.030506106870229,0.029668702290076333
0.35100000000000003,1.0,9.13494427480916,-2.44363893129771,3.5258389312977103,-0.041347328244274804,-0.030515267175572514,0.02967175572519084
0.352,1.0,9.135090839694657,-2.4436022900763357,3.525802290076336,-0.04135572519083969,-0.030524427480916026,0.029674809160305342
0.353,1.0,9.135237404580153,-2.4435656488549617,3.525765648854962,-0.04136412213740458,-0.030533587786259538,0.029677862595419845
0.354,1.0,9.135383969465648,-2.443529007633588,3.525729007633588,-0.04137251908396946,-0.03054274809160305,0.029680916030534348
0.355,1.0,9.135530534351146,-2.4434923664122135,3.5256923664122137,-0.04138091603053434,-0.030551908396946558,0.029683969465648854
0.356,1.0,9.135677099236641,-2.4434557251908395,3.52565572519084,-0.04138931297709923,-0.03056106870229007,0.029687022900763357
0.357,1.0,9.135823664122137,-2.4434190839694656,3.525619083969466,-0.041397709923664115,-0.030570229007633582,0.02969007633587786
0.358,1.0,9.135970229007633,-2.4433824427480917,3.525582442748092,-0.041406106870229005,-0.030579389312977094,0.029693129770992366
0.359,1.0,9.13611679389313,-2.4433458015267173,3.5255458015267176,-0.04141450381679389,-0.030588549618320606,0.02969618320610687
0.36,1.0,9.136263358778626,-2.4433091603053434,3.5255091603053437,-0.04142290076335877,-0.030597709923664118,0.02969923664122137
0.361,1.0,9.136409923664122,-2.4432725190839695,3.5254725190839697,-0.04143129770992366,-0.030606870229007627,0.029702290076335874
0.362,1.0,9.136556488549617,-2.4432358778625956,3.525435877862596,-0.04143969465648854,-0.03061603053435114,0.02970534351145038
0.363,1.0,9.136703053435115,-2.443199236641221,3.5253992366412215,-0.04144809160305343,-0.03062519083969465,0.029708396946564884
0.364,1.0,9.13684961832061,-2.4431625954198473,3.5253625954198475,-0.041456488549618316,-0.030634351145038163,0.029711450381679386
0.365,1.0,9.136996183206106,-2.4431259541984733,3.5253259541984736,-0.0414648854961832,-0.030643511450381675,0.029714503816793893
0.366,1.0,9.137142748091604,-2.443089312977099,3.5252893129770992,-0.04147328244274809,-0.030652671755725187,0.029717557251908396
0.367,1.0,9.1372893129771,-2.443052671755725,3.5252526717557253,-0.04148167938931297,-0.030661832061068695,0.0297206106870229
0.368,1.0,9.137435877862595,-2.443016030534351,3.5252160305343514,-0.041490076335877854,-0.030670992366412207,0.0297236641221374
0.369,1.0,9.13758244274809,-2.442979389312977,3.5251793893129775,-0.041498473282442744,-0.03068015267175572,0.029726717557251908
0.37,1.0,9.137729007633588,-2.442942748091603,3.525142748091603,-0.04150687022900763,-0.03068931297709923,0.02972977099236641
0.371,1.0,9.137875572519084,-2.442906106870229,3.525106106870229,-0.041515267175572516,-0.030698473282442743,0.029732824427480913
0.372,1.0,9.13802213740458,-2.442869465648855,3.5250694656488553,-0.0415236641221374,-0.030707633587786255,0.02973587786259542
0.373,1.0,9.138168702290075,-2.442832824427481,3.5250328244274813,-0.04153206106870228,-0.030716793893129764,0.029738931297709922
0.374,1.0,9.138315267175573,-2.4427961832061067,3.524996183206107,-0.04154045801526717,-0.030725954198473276,0.029741984732824425
0.375,1.0,9.138461832061068,-2.4427595419847328,3.524959541984733,-0.041548854961832055,-0.030735114503816788,0.029745038167938928
0.376,1.0,9.138608396946564,-2.442722900763359,3.524922900763359,-0.041557251908396944,-0.0307442748091603,0.029748091603053434
0.377,1.0,9.138754961832062,-2.4426862595419845,3.5248862595419848,-0.04156564885496183,-0.030753435114503812,0.029751145038167937
0.378,1.0,9.138901526717557,-2.4426496183206106,3.524849618320611,-0.04157404580152671,-0.030762595419847324,0.02975419847328244
0.379,1.0,9.139048091603053,-2.4426129770992366,3.524812977099237,-0.0415824427480916,-0.030771755725190836,0.029757251908396943
0.38,1.0,9.139194656488549,-2.4425763358778627,3.524776335877863,-0.04159083969465648,-0.030780916030534344,0.02976030534351145
0.381,1.0,9.139341221374046,-2.4425396946564883,3.5247396946564886,-0.04159923664122137,-0.030790076335877856,0.029763358778625952
0.382,1.0,9.139487786259542,-2.4425030534351144,3.5247030534351147,-0.041607633587786255,-0.03079923664122137,0.029766412213740455
0.383,1.0,9.139634351145038,-2.4424664122137405,3.5246664122137408,-0.04161603053435114,-0.03080839694656488,0.02976946564885496
0.384,1.0,9.139780916030533,-2.4424297709923666,3.524629770992367,-0.04162442748091603,-0.030817557251908392,0.029772519083969464
0.385,1.0,9.13992748091603,-2.442393129770992,3.5245931297709925,-0.04163282442748091,-0.0308267175572519,0.029775572519083967
0.386,1.0,9.140074045801526,-2.4423564885496183,3.5245564885496186,-0.04164122137404579,-0.030835877862595413,0.02977862595419847
0.387,1.0,9.140220610687022,-2.4423198473282444,3.5245198473282446,-0.04164961832061068,-0.030845038167938925,0.029781679389312976
0.388,1.0,9.14036717557252,-2.44228320610687,3.5244832061068703,-0.041658015267175566,-0.030854198473282437,0.02978473282442748
0.389,1.0,9.140513740458015,-2.442246564885496,3.5244465648854963,-0.041666412213740456,-0.03086335877862595,0.029787786259541982
0.39,1.0,9.140660305343511,-2.442209923664122,3.5244099236641224,-0.04167480916030534,-0.03087251908396946,0.029790839694656488
0.391,1.0,9.140806870229007,-2.4421732824427482,3.5243732824427485,-0.04168320610687022,-0.030881679389312973,0.02979389312977099
0.392,1.0,9.140953435114504,-2.442136641221374,3.524336641221374,-0.04169160305343511,-0.03089083969465648,0.029796946564885494
0.393,1.0,9.1411,-2.4421,3.5243,-0.041699999999999994,-0.030899999999999993,0.029799999999999997
0.394,1.0,9.141063076923077,-2.4421,3.524226153846154,-0.04169769230769231,-0.03090076923076923,0.029807692307692302
0.395,1.0,9.141026153846154,-2.4421,3.524152307692308,-0.04169538461538462,-0.030901538461538463,0.02981538461538461
0.396,1.0,9.14098923076923,-2.4421,3.524078461538462,-0.04169307692307692,-0.03090230769230769,0.029823076923076917
0.397,1.0,9.140952307692308,-2.4421,3.524004615384616,-0.04169076923076923,-0.030903076923076922,0.029830769230769227
0.398,1.0,9.140915384615385,-2.4421,3.5239307692307693,-0.04168846153846154,-0.030903846153846153,0.029838461538461536
0.399,1.0,9.140878461538462,-2.4421,3.523856923076923,-0.041686153846153845,-0.030904615384615385,0.02984615384615384
0.4,1.0,9.140841538461538,-2.4421,3.523783076923077,-0.041683846153846155,-0.030905384615384616,0.02985384615384615
0.401,1.0,9.140804615384615,-2.4421,3.523709230769231,-0.041681538461538464,-0.030906153846153847,0.02986153846153846
0.402,1.0,9.140767692307692,-2.4421,3.523635384615385,-0.041679230769230774,-0.03090692307692308,0.029869230769230766
0.403,1.0,9.14073076923077,-2.4421,3.523561538461539,-0.04167692307692308,-0.030907692307692306,0.029876923076923075
0.404,1.0,9.140693846153846,-2.4421,3.5234876923076923,-0.041674615384615386,-0.030908461538461537,0.02988461538461538
0.405,1.0,9.140656923076923,-2.4421,3.5234138461538462,-0.041672307692307696,-0.03090923076923077,0.02989230769230769
0.406,1.0,9.14062,-2.4421,3.52334,-0.04167,-0.03091,0.0299
0.40700000000000003,1.0,9.140583076923077,-2.4421,3.523266153846154,-0.04166769230769231,-0.03091076923076923,0.029907692307692305
0.40800000000000003,1.0,9.140546153846154,-2.4421,3.523192307692308,-0.04166538461538462,-0.030911538461538463,0.029915384615384615
0.40900000000000003,1.0,9.140509230769231,-2.4421,3.523118461538462,-0.04166307692307692,-0.030912307692307694,0.029923076923076924
0.41000000000000003,1.0,9.140472307692308,-2.4421,3.5230446153846158,-0.04166076923076923,-0.030913076923076925,0.02993076923076923
0.41100000000000003,1.0,9.140435384615385,-2.4421,3.5229707692307692,-0.04165846153846154,-0.030913846153846153,0.02993846153846154
0.41200000000000003,1.0,9.140398461538462,-2.4421,3.522896923076923,-0.04165615384615385,-0.030914615384615384,0.029946153846153848
0.41300000000000003,1.0,9.140361538461539,-2.4421,3.522823076923077,-0.04165384615384615,-0.030915384615384615,0.029953846153846154
0.41400000000000003,1.0,9.140324615384616,-2.4421,3.522749230769231,-0.04165153846153846,-0.030916153846153847,0.029961538461538463
0.41500000000000004,1.0,9.140287692307693,-2.4421,3.522675384615385,-0.04164923076923077,-0.030916923076923078,0.02996923076923077
0.41600000000000004,1.0,9.14025076923077,-2.4421,3.522601538461539,-0.041646923076923074,-0.03091769230769231,0.029976923076923078
0.417,1.0,9.140213846153847,-2.4421,3.5225276923076922,-0.041644615384615384,-0.03091846153846154,0.029984615384615387
0.418,1.0,9.140176923076924,-2.4421,3.522453846153846,-0.041642307692307694,-0.03091923076923077,0.029992307692307693
0.419,1.0,9.14014,-2.4421,3.52238,-0.04164,-0.03092,0.030000000000000002
0.42,1.0,9.140103076923078,-2.4421,3.522306153846154,-0.041637692307692306,-0.03092076923076923,0.03000769230769231
0.421,1.0,9.140066153846155,-2.4421,3.522232307692308,-0.041635384615384616,-0.030921538461538462,0.030015384615384617
0.422,1.0,9.140029230769231,-2.4421,3.522158461538462,-0.041633076923076925,-0.030922307692307693,0.030023076923076927
0.423,1.0,9.139992307692308,-2.4421,3.5220846153846157,-0.04163076923076923,-0.030923076923076925,0.030030769230769232
0.424,1.0,9.139955384615385,-2.4421,3.522010769230769,-0.04162846153846154,-0.030923846153846156,0.03003846153846154
0.425,1.0,9.13991846153846,-2.4421,3.521936923076923,-0.04162615384615385,-0.030924615384615384,0.03004615384615385
0.426,1.0,9.139881538461538,-2.4421,3.521863076923077,-0.04162384615384615,-0.030925384615384615,0.030053846153846157
0.427,1.0,9.139844615384614,-2.4421,3.521789230769231,-0.04162153846153846,-0.030926153846153846,0.030061538461538466
0.428,1.0,9.139807692307691,-2.4421,3.521715384615385,-0.04161923076923077,-0.030926923076923078,0.030069230769230775
0.429,1.0,9.139770769230768,-2.4421,3.5216415384615387,-0.04161692307692308,-0.03092769230769231,0.03007692307692308
0.43,1.0,9.139733846153845,-2.4421,3.521567692307692,-0.04161461538461538,-0.03092846153846154,0.03008461538461539
0.431,1.0,9.139696923076922,-2.4421,3.521493846153846,-0.04161230769230769,-0.03092923076923077,0.030092307692307696
0.432,1.0,9.13966,-2.4421,3.52142,-0.04161,-0.03093,0.030100000000000005
0.433,1.0,9.139623076923076,-2.4421,3.521346153846154,-0.041607692307692304,-0.03093076923076923,0.030107692307692314
0.434,1.0,9.139586153846153,-2.4421,3.521272307692308,-0.041605384615384614,-0.03093153846153846,0.03011538461538462
0.435,1.0,9.13954923076923,-2.4421,3.5211984615384617,-0.04160307692307692,-0.030932307692307693,0.03012307692307693
0.436,1.0,9.139512307692307,-2.4421,3.5211246153846156,-0.041600769230769226,-0.030933076923076924,0.03013076923076924
0.437,1.0,9.139475384615384,-2.4421,3.521050769230769,-0.041598461538461536,-0.030933846153846156,0.030138461538461545
0.438,1.0,9.139438461538461,-2.4421,3.520976923076923,-0.041596153846153845,-0.030934615384615387,0.030146153846153854
0.439,1.0,9.139401538461538,-2.4421,3.520903076923077,-0.041593846153846155,-0.030935384615384615,0.030153846153846163
0.44,1.0,9.139364615384615,-2.4421,3.520829230769231,-0.04159153846153846,-0.030936153846153846,0.03016153846153847
0.441,1.0,9.139327692307692,-2.4421,3.5207553846153847,-0.04158923076923077,-0.030936923076923077,0.030169230769230778
0.442,1.0,9.139290769230769,-2.4421,3.5206815384615386,-0.04158692307692308,-0.03093769230769231,0.030176923076923084
0.443,1.0,9.139253846153846,-2.4421,3.5206076923076925,-0.04158461538461538,-0.03093846153846154,0.030184615384615393
0.444,1.0,9.139216923076923,-2.4421,3.520533846153846,-0.04158230769230769,-0.03093923076923077,0.030192307692307702
0.445,1.0,9.13918,-2.4421,3.52046,-0.04158,-0.030940000000000002,0.030200000000000008
0.446,1.0,9.139143076923077,-2.4421,3.520386153846154,-0.04157769230769231,-0.030940769230769233,0.030207692307692317
0.447,1.0,9.139106153846154,-2.4421,3.5203123076923077,-0.04157538461538461,-0.03094153846153846,0.030215384615384627
0.448,1.0,9.13906923076923,-2.4421,3.5202384615384616,-0.04157307692307692,-0.030942307692307693,0.030223076923076932
0.449,1.0,9.139032307692307,-2.4421,3.5201646153846156,-0.04157076923076923,-0.030943076923076924,0.03023076923076924
0.45,1.0,9.138995384615384,-2.4421,3.520090769230769,-0.04156846153846153,-0.030943846153846155,0.030238461538461547
0.451,1.0,9.138958461538461,-2.4421,3.520016923076923,-0.04156615384615384,-0.030944615384615386,0.030246153846153857
0.452,1.0,9.138921538461538,-2.4421,3.519943076923077,-0.04156384615384615,-0.030945384615384618,0.030253846153846166
0.453,1.0,9.138884615384615,-2.4421,3.5198692307692308,-0.041561538461538455,-0.03094615384615385,0.03026153846153847
0.454,1.0,9.138847692307692,-2.4421,3.5197953846153847,-0.041559230769230765,-0.030946923076923077,0.03026923076923078
0.455,1.0,9.13881076923077,-2.4421,3.5197215384615386,-0.041556923076923075,-0.030947692307692308,0.03027692307692309
0.456,1.0,9.138773846153846,-2.4421,3.5196476923076925,-0.041554615384615384,-0.03094846153846154,0.030284615384615396
0.457,1.0,9.138736923076923,-2.4421,3.519573846153846,-0.04155230769230769,-0.03094923076923077,0.030292307692307705
0.458,1.0,9.1387,-2.4421,3.5195,-0.04155,-0.030950000000000002,0.030300000000000014
0.459,1.0,9.138663076923077,-2.4421,3.5194261538461538,-0.041547692307692306,-0.030950769230769233,0.03030769230769232
0.46,1.0,9.138626153846154,-2.4421,3.5193523076923077,-0.04154538461538461,-0.030951538461538464,0.03031538461538463
0.461,1.0,9.138589230769231,-2.4421,3.5192784615384616,-0.04154307692307692,-0.030952307692307692,0.030323076923076935
0.462,1.0,9.138552307692308,-2.4421,3.5192046153846155,-0.04154076923076923,-0.030953076923076923,0.030330769230769244
0.463,1.0,9.138515384615385,-2.4421,3.519130769230769,-0.04153846153846153,-0.030953846153846155,0.030338461538461554
0.464,1.0,9.138478461538462,-2.4421,3.519056923076923,-0.04153615384615384,-0.030954615384615386,0.03034615384615386
0.465,1.0,9.138441538461539,-2.4421,3.5189830769230768,-0.04153384615384615,-0.030955384615384617,0.03035384615384617
0.466,1.0,9.138404615384616,-2.4421,3.5189092307692307,-0.04153153846153846,-0.03095615384615385,0.030361538461538478
0.467,1.0,9.138367692307693,-2.4421,3.5188353846153846,-0.04152923076923076,-0.03095692307692308,0.030369230769230784
0.468,1.0,9.13833076923077,-2.4421,3.5187615384615385,-0.04152692307692307,-0.030957692307692308,0.030376923076923093
0.46900000000000003,1.0,9.138293846153847,-2.4421,3.5186876923076924,-0.04152461538461538,-0.03095846153846154,0.030384615384615402
0.47000000000000003,1.0,9.138256923076923,-2.4421,3.518613846153846,-0.041522307692307685,-0.03095923076923077,0.030392307692307708
0.47100000000000003,1.0,9.13822,-2.4421,3.51854,-0.041519999999999994,-0.03096,0.030400000000000017
0.47200000000000003,1.0,9.138183076923077,-2.4421,3.5184661538461537,-0.041517692307692304,-0.030960769230769233,0.030407692307692323
0.47300000000000003,1.0,9.138146153846154,-2.4421,3.5183923076923076,-0.041515384615384614,-0.030961538461538464,0.030415384615384632
0.47400000000000003,1.0,9.138109230769231,-2.4421,3.5183184615384615,-0.041513076923076916,-0.030962307692307695,0.03042307692307694
0.47500000000000003,1.0,9.138072307692308,-2.4421,3.5182446153846154,-0.041510769230769226,-0.030963076923076926,0.030430769230769247
0.47600000000000003,1.0,9.138035384615385,-2.4421,3.518170769230769,-0.041508461538461536,-0.030963846153846154,0.030438461538461557
0.47700000000000004,1.0,9.137998461538462,-2.4421,3.518096923076923,-0.04150615384615384,-0.030964615384615386,0.030446153846153866
0.47800000000000004,1.0,9.13796153846154,-2.4421,3.5180230769230767,-0.04150384615384615,-0.030965384615384617,0.03045384615384617
0.47900000000000004,1.0,9.137924615384616,-2.4421,3.5179492307692306,-0.04150153846153846,-0.030966153846153848,0.03046153846153848
0.48,1.0,9.137887692307693,-2.4421,3.5178753846153845,-0.04149923076923076,-0.03096692307692308,0.030469230769230787
0.481,1.0,9.13785076923077,-2.4421,3.5178015384615384,-0.04149692307692307,-0.03096769230769231,0.030476923076923096
0.482,1.0,9.137813846153847,-2.4421,3.5177276923076923,-0.04149461538461538,-0.030968461538461542,0.030484615384615405
0.483,1.0,9.137776923076924,-2.4421,3.517653846153846,-0.04149230769230769,-0.03096923076923077,0.03049230769230771
0.484,1.0,9.13774,-2.4421,3.5175799999999997,-0.04148999999999999,-0.03097,0.03050000000000002
0.485,1.0,9.137703076923078,-2.4421,3.5175061538461536,-0.0414876923076923,-0.030970769230769232,0.03050769230769233
0.486,1.0,9.137666153846155,-2.4421,3.5174323076923075,-0.04148538461538461,-0.030971538461538464,0.030515384615384635
0.487,1.0,9.13762923076923,-2.4421,3.5173584615384614,-0.041483076923076914,-0.030972307692307695,0.030523076923076944
0.488,1.0,9.137592307692307,-2.4421,3.5172846153846153,-0.041480769230769224,-0.030973076923076926,0.03053076923076925
0.489,1.0,9.137555384615384,-2.4421,3.5172107692307693,-0.041478461538461533,-0.030973846153846157,0.03053846153846156
0.49,1.0,9.13751846153846,-2.4421,3.5171369230769227,-0.041476153846153836,-0.030974615384615385,0.03054615384615387
0.491,1.0,9.137481538461538,-2.4421,3.5170630769230766,-0.041473846153846146,-0.030975384615384616,0.030553846153846174
0.492,1.0,9.137444615384615,-2.4421,3.5169892307692305,-0.041471538461538456,-0.030976153846153848,0.030561538461538484
0.493,1.0,9.137407692307692,-2.4421,3.5169153846153844,-0.041469230769230765,-0.03097692307692308,0.030569230769230793
0.494,1.0,9.137370769230769,-2.4421,3.5168415384615384,-0.04146692307692307,-0.03097769230769231,0.0305769230769231
0.495,1.0,9.137333846153846,-2.4421,3.5167676923076923,-0.04146461538461538,-0.03097846153846154,0.030584615384615408
0.496,1.0,9.137296923076923,-2.4421,3.5166938461538457,-0.04146230769230769,-0.030979230769230773,0.030592307692307717
0.497,1.0,9.13726,-2.4421,3.5166199999999996,-0.04145999999999999,-0.03098,0.030600000000000023
0.498,1.0,9.137223076923076,-2.4421,3.5165461538461535,-0.0414576923076923,-0.030980769230769232,0.030607692307692332
0.499,1.0,9.137186153846153,-2.4421,3.5164723076923075,-0.04145538461538461,-0.030981538461538463,0.030615384615384638
0.5,1.0,9.13714923076923,-2.4421,3.5163984615384614,-0.04145307692307692,-0.030982307692307694,0.030623076923076947
0.501,1.0,9.137112307692307,-2.4421,3.5163246153846153,-0.04145076923076922,-0.030983076923076926,0.030630769230769257
0.502,1.0,9.137075384615384,-2.4421,3.516250769230769,-0.04144846153846153,-0.030983846153846157,0.030638461538461562
0.503,1.0,9.137038461538461,-2.4421,3.5161769230769226,-0.04144615384615384,-0.030984615384615388,0.03064615384615387
0.504,1.0,9.137001538461538,-2.4421,3.5161030769230766,-0.041443846153846144,-0.030985384615384616,0.03065384615384618
0.505,1.0,9.136964615384615,-2.4421,3.5160292307692305,-0.04144153846153845,-0.030986153846153847,0.030661538461538487
0.506,1.0,9.136927692307692,-2.4421,3.5159553846153844,-0.04143923076923076,-0.03098692307692308,0.030669230769230796
0.507,1.0,9.136890769230769,-2.4421,3.5158815384615383,-0.041436923076923066,-0.03098769230769231,0.0306769230769231
0.508,1.0,9.136853846153846,-2.4421,3.515807692307692,-0.041434615384615375,-0.03098846153846154,0.03068461538461541
0.509,1.0,9.136816923076923,-2.4421,3.5157338461538457,-0.041432307692307685,-0.030989230769230772,0.03069230769230772
0.51,1.0,9.13678,-2.4421,3.5156599999999996,-0.041429999999999995,-0.030990000000000004,0.030700000000000026
0.511,1.0,9.136743076923077,-2.4421,3.5155861538461535,-0.0414276923076923,-0.030990769230769235,0.030707692307692335
0.512,1.0,9.136706153846154,-2.4421,3.5155123076923074,-0.04142538461538461,-0.030991538461538463,0.030715384615384644
0.513,1.0,9.13666923076923,-2.4421,3.5154384615384613,-0.04142307692307692,-0.030992307692307694,0.03072307692307695
0.514,1.0,9.136632307692308,-2.4421,3.515364615384615,-0.04142076923076922,-0.030993076923076925,0.03073076923076926
0.515,1.0,9.136595384615385,-2.4421,3.515290769230769,-0.04141846153846153,-0.030993846153846157,0.03073846153846157
0.516,1.0,9.136558461538462,-2.4421,3.5152169230769226,-0.04141615384615384,-0.030994615384615388,0.030746153846153874
0.517,1.0,9.136521538461539,-2.4421,3.5151430769230765,-0.04141384615384614,-0.03099538461538462,0.030753846153846184
0.518,1.0,9.136484615384616,-2.4421,3.5150692307692304,-0.04141153846153845,-0.03099615384615385,0.03076153846153849
0.519,1.0,9.136447692307692,-2.4421,3.5149953846153843,-0.04140923076923076,-0.030996923076923078,0.0307692307692308
0.52,1.0,9.13641076923077,-2.4421,3.514921538461538,-0.04140692307692307,-0.03099769230769231,0.030776923076923108
0.521,1.0,9.136373846153846,-2.4421,3.514847692307692,-0.04140461538461537,-0.03099846153846154,0.030784615384615414
0.522,1.0,9.136336923076923,-2.4421,3.514773846153846,-0.04140230769230768,-0.030999230769230772,0.030792307692307723
0.523,1.0,9.1363,-2.4421,3.5147,-0.04139999999999999,-0.030999999999999927,0.0308
0.524,1.0,9.136226717557252,-2.4421366412213743,3.5146633587786256,-0.04139847328244274,-0.030980916030534277,0.0308
0.525,1.0,9.136153435114505,-2.4421732824427482,3.5146267175572516,-0.04139694656488549,-0.030961832061068627,0.0308
0.526,1.0,9.136080152671756,-2.442209923664122,3.5145900763358777,-0.04139541984732824,-0.030942748091602978,0.0308
0.527,1.0,9.136006870229007,-2.442246564885496,3.514553435114504,-0.04139389312977099,-0.03092366412213733,0.0308
0.528,1.0,9.13593358778626,-2.4422832061068704,3.5145167938931294,-0.041392366412213735,-0.030904580152671682,0.0308
0.529,1.0,9.135860305343511,-2.4423198473282444,3.5144801526717555,-0.041390839694656484,-0.030885496183206032,0.0308
0.53,1.0,9.135787022900763,-2.4423564885496183,3.5144435114503816,-0.04138931297709923,-0.030866412213740382,0.0308
0.531,1.0,9.135713740458016,-2.4423931297709927,3.514406870229007,-0.04138778625954198,-0.030847328244274736,0.0308
0.532,1.0,9.135640458015267,-2.4424297709923666,3.5143702290076333,-0.04138625954198473,-0.030828244274809086,0.0308
0.533,1.0,9.135567175572518,-2.4424664122137405,3.5143335877862594,-0.04138473282442747,-0.030809160305343437,0.0308
0.534,1.0,9.135493893129771,-2.4425030534351144,3.5142969465648854,-0.04138320610687022,-0.030790076335877787,0.0308
0.535,1.0,9.135420610687023,-2.442539694656489,3.514260305343511,-0.04138167938931297,-0.03077099236641214,0.0308
0.536,1.0,9.135347328244276,-2.4425763358778627,3.514223664122137,-0.04138015267175572,-0.03075190839694649,0.0308
0.537,1.0,9.135274045801527,-2.4426129770992366,3.5141870229007632,-0.041378625954198466,-0.03073282442748084,0.0308
0.538,1.0,9.135200763358778,-2.4426496183206106,3.5141503816793893,-0.041377099236641214,-0.03071374045801519,0.0308
0.539,1.0,9.135127480916031,-2.442686259541985,3.514113740458015,-0.04137557251908396,-0.030694656488549545,0.0308
0.54,1.0,9.135054198473282,-2.442722900763359,3.514077099236641,-0.04137404580152671,-0.030675572519083896,0.0308
0.541,1.0,9.134980916030534,-2.4427595419847328,3.514040458015267,-0.04137251908396946,-0.030656488549618246,0.0308
0.542,1.0,9.134907633587787,-2.442796183206107,3.5140038167938927,-0.04137099236641221,-0.030637404580152596,0.0308
0.543,1.0,9.134834351145038,-2.442832824427481,3.513967175572519,-0.04136946564885496,-0.03061832061068695,0.0308
0.544,1.0,9.13476106870229,-2.442869465648855,3.513930534351145,-0.041367938931297706,-0.0305992366412213,0.0308
0.545,1.0,9.134687786259542,-2.442906106870229,3.513893893129771,-0.041366412213740454,-0.03058015267175565,0.0308
0.546,1.0,9.134614503816794,-2.4429427480916033,3.5138572519083966,-0.0413648854961832,-0.030561068702290004,0.0308
0.547,1.0,9.134541221374045,-2.442979389312977,3.5138206106870227,-0.04136335877862595,-0.030541984732824354,0.0308
0.548,1.0,9.134467938931298,-2.443016030534351,3.5137839694656487,-0.04136183206106869,-0.030522900763358705,0.0308
0.549,1.0,9.13439465648855,-2.443052671755725,3.513747328244275,-0.04136030534351144,-0.030503816793893055,0.0308
0.55,1.0,9.134321374045802,-2.4430893129770994,3.5137106870229005,-0.04135877862595419,-0.03048473282442741,0.0308
0.551,1.0,9.134248091603054,-2.4431259541984733,3.5136740458015265,-0.04135725190839694,-0.03046564885496176,0.0308
0.552,1.0,9.134174809160305,-2.4431625954198473,3.5136374045801526,-0.04135572519083969,-0.03044656488549611,0.0308
0.553,1.0,9.134101526717558,-2.4431992366412216,3.5136007633587782,-0.041354198473282436,-0.03042748091603046,0.0308
0.554,1.0,9.134028244274809,-2.4432358778625956,3.5135641221374043,-0.041352671755725184,-0.030408396946564813,0.0308
0.555,1.0,9.13395496183206,-2.4432725190839695,3.5135274809160304,-0.04135114503816793,-0.030389312977099164,0.0308
0.556,1.0,9.133881679389313,-2.4433091603053434,3.5134908396946565,-0.04134961832061068,-0.030370229007633514,0.0308
0.557,1.0,9.133808396946565,-2.4433458015267178,3.513454198473282,-0.04134809160305343,-0.030351145038167864,0.0308
0.558,1.0,9.133735114503816,-2.4433824427480917,3.513417557251908,-0.04134656488549618,-0.030332061068702218,0.0308
0.559,1.0,9.133661832061069,-2.4434190839694656,3.5133809160305343,-0.04134503816793893,-0.030312977099236568,0.0308
0.56,1.0,9.13358854961832,-2.4434557251908395,3.5133442748091603,-0.041343511450381676,-0.03029389312977092,0.0308
0.561,1.0,9.133515267175571,-2.443492366412214,3.513307633587786,-0.041341984732824424,-0.03027480916030527,0.0308
0.562,1.0,9.133441984732825,-2.443529007633588,3.513270992366412,-0.041340458015267166,-0.030255725190839623,0.0308
0.5630000000000001,1.0,9.133368702290076,-2.4435656488549617,3.513234351145038,-0.041338931297709915,-0.030236641221373973,0.0308
0.5640000000000001,1.0,9.133295419847329,-2.443602290076336,3.5131977099236638,-0.04133740458015266,-0.030217557251908323,0.0308
0.5650000000000001,1.0,9.13322213740458,-2.44363893129771,3.51316106870229,-0.04133587786259541,-0.030198473282442673,0.0308
0.5660000000000001,1.0,9.133148854961831,-2.443675572519084,3.513124427480916,-0.04133435114503816,-0.030179389312977027,0.0308
0.5670000000000001,1.0,9.133075572519084,-2.443712213740458,3.513087786259542,-0.04133282442748091,-0.030160305343511377,0.0308
0.5680000000000001,1.0,9.133002290076336,-2.4437488549618323,3.5130511450381676,-0.04133129770992366,-0.030141221374045728,0.0308
0.5690000000000001,1.0,9.132929007633587,-2.443785496183206,3.5130145038167937,-0.041329770992366406,-0.030122137404580078,0.0308
0.5700000000000001,1.0,9.13285572519084,-2.44382213740458,3.5129778625954198,-0.041328244274809155,-0.030103053435114432,0.0308
0.5710000000000001,1.0,9.132782442748091,-2.4438587786259545,3.5129412213740454,-0.0413267175572519,-0.030083969465648782,0.0308
0.5720000000000001,1.0,9.132709160305343,-2.4438954198473284,3.5129045801526715,-0.04132519083969465,-0.030064885496183132,0.0308
0.5730000000000001,1.0,9.132635877862596,-2.4439320610687023,3.5128679389312976,-0.0413236641221374,-0.030045801526717483,0.0308
0.5740000000000001,1.0,9.132562595419847,-2.4439687022900762,3.5128312977099236,-0.04132213740458015,-0.030026717557251836,0.0308
0.5750000000000001,1.0,9.132489312977098,-2.4440053435114506,3.5127946564885493,-0.0413206106870229,-0.030007633587786187,0.0308
0.5760000000000001,1.0,9.132416030534351,-2.4440419847328245,3.5127580152671753,-0.041319083969465646,-0.029988549618320537,0.0308
0.577,1.0,9.132342748091602,-2.4440786259541984,3.5127213740458014,-0.04131755725190839,-0.02996946564885489,0.0308
0.578,1.0,9.132269465648855,-2.4441152671755724,3.5126847328244275,-0.041316030534351136,-0.02995038167938924,0.0308
0.579,1.0,9.132196183206107,-2.4441519083969467,3.512648091603053,-0.041314503816793885,-0.029931297709923595,0.0308
0.58,1.0,9.132122900763358,-2.4441885496183207,3.512611450381679,-0.041312977099236634,-0.029912213740457945,0.0308
0.581,1.0,9.132049618320611,-2.4442251908396946,3.5125748091603053,-0.04131145038167938,-0.029893129770992295,0.0308
0.582,1.0,9.131976335877862,-2.444261832061069,3.512538167938931,-0.04130992366412213,-0.029874045801526646,0.0308
0.583,1.0,9.131903053435114,-2.444298473282443,3.512501526717557,-0.04130839694656488,-0.029854961832061,0.0308
0.584,1.0,9.131829770992367,-2.444335114503817,3.512464885496183,-0.04130687022900763,-0.02983587786259535,0.0308
0.585,1.0,9.131756488549618,-2.4443717557251907,3.512428244274809,-0.041305343511450376,-0.0298167938931297,0.0308
0.586,1.0,9.13168320610687,-2.444408396946565,3.512391603053435,-0.041303816793893125,-0.02979770992366405,0.0308
0.587,1.0,9.131609923664122,-2.444445038167939,3.512354961832061,-0.041302290076335874,-0.029778625954198404,0.0308
0.588,1.0,9.131536641221373,-2.444481679389313,3.512318320610687,-0.04130076335877862,-0.029759541984732754,0.0308
0.589,1.0,9.131463358778626,-2.444518320610687,3.512281679389313,-0.04129923664122137,-0.029740458015267104,0.0308
0.59,1.0,9.131390076335878,-2.4445549618320612,3.5122450381679386,-0.04129770992366412,-0.029721374045801455,0.0308
0.591,1.0,9.131316793893129,-2.444591603053435,3.5122083969465647,-0.04129618320610687,-0.02970229007633581,0.0308
0.592,1.0,9.131243511450382,-2.444628244274809,3.512171755725191,-0.04129465648854961,-0.02968320610687016,0.0308
0.593,1.0,9.131170229007633,-2.4446648854961834,3.5121351145038164,-0.04129312977099236,-0.02966412213740451,0.0308
0.594,1.0,9.131096946564885,-2.4447015267175574,3.5120984732824425,-0.04129160305343511,-0.02964503816793886,0.0308
0.595,1.0,9.131023664122138,-2.4447381679389313,3.5120618320610686,-0.041290076335877855,-0.029625954198473213,0.0308
0.596,1.0,9.130950381679389,-2.444774809160305,3.5120251908396947,-0.041288549618320604,-0.029606870229007563,0.0308
0.597,1.0,9.13087709923664,-2.4448114503816796,3.5119885496183203,-0.04128702290076335,-0.029587786259541914,0.0308
0.598,1.0,9.130803816793893,-2.4448480916030535,3.5119519083969464,-0.0412854961832061,-0.029568702290076264,0.0308
0.599,1.0,9.130730534351144,-2.4448847328244274,3.5119152671755725,-0.04128396946564885,-0.029549618320610618,0.0308
0.6,1.0,9.130657251908396,-2.4449213740458013,3.5118786259541985,-0.0412824427480916,-0.029530534351144968,0.0308
0.601,1.0,9.130583969465649,-2.4449580152671757,3.511841984732824,-0.04128091603053435,-0.029511450381679318,0.0308
0.602,1.0,9.1305106870229,-2.4449946564885496,3.5118053435114502,-0.041279389312977095,-0.029492366412213672,0.0308
0.603,1.0,9.130437404580153,-2.4450312977099236,3.5117687022900763,-0.041277862595419844,-0.029473282442748022,0.0308
0.604,1.0,9.130364122137404,-2.445067938931298,3.511732061068702,-0.04127633587786259,-0.029454198473282373,0.0308
0.605,1.0,9.130290839694656,-2.445104580152672,3.511695419847328,-0.04127480916030534,-0.029435114503816723,0.0308
0.606,1.0,9.130217557251909,-2.4451412213740458,3.511658778625954,-0.04127328244274808,-0.029416030534351073,0.0308
0.607,1.0,9.13014427480916,-2.4451778625954197,3.51162213740458,-0.04127175572519083,-0.029396946564885427,0.0308
0.608,1.0,9.130070992366411,-2.445214503816794,3.511585496183206,-0.04127022900763358,-0.029377862595419777,0.0308
0.609,1.0,9.129997709923664,-2.445251145038168,3.511548854961832,-0.04126870229007633,-0.029358778625954127,0.0308
0.61,1.0,9.129924427480915,-2.445287786259542,3.511512213740458,-0.04126717557251908,-0.02933969465648848,0.0308
0.611,1.0,9.129851145038167,-2.445324427480916,3.511475572519084,-0.041265648854961826,-0.02932061068702283,0.0308
0.612,1.0,9.12977786259542,-2.44536106870229,3.5114389312977097,-0.041264122137404574,-0.02930152671755718,0.0308
0.613,1.0,9.129704580152671,-2.445397709923664,3.5114022900763358,-0.04126259541984732,-0.029282442748091532,0.0308
0.614,1.0,9.129631297709922,-2.445434351145038,3.511365648854962,-0.04126106870229007,-0.029263358778625886,0.0308
0.615,1.0,9.129558015267175,-2.4454709923664124,3.5113290076335875,-0.04125954198473282,-0.029244274809160236,0.0308
0.616,1.0,9.129484732824427,-2.4455076335877863,3.5112923664122135,-0.04125801526717557,-0.029225190839694586,0.0308
0.617,1.0,9.12941145038168,-2.4455442748091603,3.5112557251908396,-0.04125648854961832,-0.029206106870228937,0.0308
0.618,1.0,9.129338167938931,-2.445580916030534,3.5112190839694657,-0.041254961832061066,-0.02918702290076329,0.0308
0.619,1.0,9.129264885496182,-2.4456175572519085,3.5111824427480913,-0.041253435114503814,-0.02916793893129764,0.0308
0.62,1.0,9.129191603053435,-2.4456541984732825,3.5111458015267174,-0.04125190839694656,-0.02914885496183199,0.0308
0.621,1.0,9.129118320610687,-2.4456908396946564,3.5111091603053435,-0.041250381679389304,-0.02912977099236634,0.0308
0.622,1.0,9.129045038167938,-2.4457274809160308,3.511072519083969,-0.04124885496183205,-0.029110687022900695,0.0308
0.623,1.0,9.12897175572519,-2.4457641221374047,3.511035877862595,-0.0412473282442748,-0.029091603053435045,0.0308
0.624,1.0,9.128898473282442,-2.4458007633587786,3.5109992366412213,-0.04124580152671755,-0.029072519083969395,0.0308
0.625,1.0,9.128825190839693,-2.4458374045801525,3.5109625954198473,-0.0412442748091603,-0.029053435114503746,0.0308
0.626,1.0,9.128751908396946,-2.445874045801527,3.510925954198473,-0.04124274809160305,-0.0290343511450381,0.0308
0.627,1.0,9.128678625954198,-2.445910687022901,3.510889312977099,-0.041241221374045796,-0.02901526717557245,0.0308
0.628,1.0,9.12860534351145,-2.4459473282442747,3.510852671755725,-0.041239694656488544,-0.0289961832061068,0.0308
0.629,1.0,9.128532061068702,-2.4459839694656487,3.510816030534351,-0.04123816793893129,-0.02897709923664115,0.0308
0.63,1.0,9.128458778625953,-2.446020610687023,3.510779389312977,-0.04123664122137404,-0.028958015267175504,0.0308
0.631,1.0,9.128385496183206,-2.446057251908397,3.510742748091603,-0.04123511450381679,-0.028938931297709854,0.0308
0.632,1.0,9.128312213740458,-2.446093893129771,3.510706106870229,-0.04123358778625954,-0.028919847328244205,0.0308
0.633,1.0,9.128238931297709,-2.4461305343511452,3.5106694656488546,-0.04123206106870229,-0.028900763358778555,0.0308
0.634,1.0,9.128165648854962,-2.446167175572519,3.5106328244274807,-0.041230534351145036,-0.02888167938931291,0.0308
0.635,1.0,9.128092366412213,-2.446203816793893,3.510596183206107,-0.04122900763358778,-0.02886259541984726,0.0308
0.636,1.0,9.128019083969464,-2.446240458015267,3.510559541984733,-0.041227480916030526,-0.02884351145038161,0.0308
0.637,1.0,9.127945801526717,-2.4462770992366414,3.5105229007633585,-0.041225954198473275,-0.02882442748091596,0.0308
0.638,1.0,9.127872519083969,-2.4463137404580153,3.5104862595419846,-0.04122442748091602,-0.028805343511450313,0.0308
0.639,1.0,9.12779923664122,-2.4463503816793892,3.5104496183206106,-0.04122290076335877,-0.028786259541984664,0.0308
0.64,1.0,9.127725954198473,-2.446387022900763,3.5104129770992367,-0.04122137404580152,-0.028767175572519014,0.0308
0.641,1.0,9.127652671755724,-2.4464236641221375,3.5103763358778624,-0.04121984732824427,-0.028748091603053368,0.0308
0.642,1.0,9.127579389312977,-2.4464603053435114,3.5103396946564884,-0.04121832061068702,-0.028729007633587718,0.0308
0.643,1.0,9.127506106870229,-2.4464969465648854,3.5103030534351145,-0.041216793893129766,-0.028709923664122068,0.0308
0.644,1.0,9.12743282442748,-2.4465335877862597,3.51026641221374,-0.041215267175572515,-0.02869083969465642,0.0308
0.645,1.0,9.127359541984733,-2.4465702290076337,3.510229770992366,-0.04121374045801526,-0.02867175572519077,0.0308
0.646,1.0,9.127286259541984,-2.4466068702290076,3.5101931297709923,-0.04121221374045801,-0.028652671755725122,0.0308
0.647,1.0,9.127212977099235,-2.4466435114503815,3.5101564885496184,-0.04121068702290076,-0.028633587786259473,0.0308
0.648,1.0,9.127139694656488,-2.446680152671756,3.510119847328244,-0.04120916030534351,-0.028614503816793823,0.0308
0.649,1.0,9.12706641221374,-2.44671679389313,3.51008320610687,-0.04120763358778626,-0.028595419847328177,0.0308
0.65,1.0,9.126993129770991,-2.4467534351145037,3.510046564885496,-0.041206106870229,-0.028576335877862527,0.0308
0.651,1.0,9.126919847328244,-2.4467900763358776,3.5100099236641222,-0.04120458015267175,-0.028557251908396877,0.0308
0.652,1.0,9.126846564885495,-2.446826717557252,3.509973282442748,-0.041203053435114496,-0.028538167938931228,0.0308
0.653,1.0,9.126773282442747,-2.446863358778626,3.509936641221374,-0.041201526717557245,-0.028519083969465578,0.0308
0.654,1.0,9.1267,-2.4468999999999994,3.5099,-0.041199999999999994,-0.028499999999999977,0.030799999999999973
0.655,1.0,9.126809923664123,-2.446790076335877,3.5099366412213744,-0.041197709923664116,-0.028493129770992342,0.030792366412213713
0.656,1.0,9.126919847328244,-2.446680152671755,3.5099732824427483,-0.04119541984732824,-0.028486259541984707,0.030784732824427456
0.657,1.0,9.127029770992367,-2.446570229007633,3.5100099236641222,-0.041193129770992355,-0.028479389312977076,0.030777099236641195
0.658,1.0,9.127139694656488,-2.446460305343511,3.510046564885496,-0.04119083969465648,-0.02847251908396944,0.030769465648854934
0.659,1.0,9.127249618320612,-2.446350381679389,3.5100832061068705,-0.0411885496183206,-0.02846564885496181,0.030761832061068674
0.66,1.0,9.127359541984733,-2.4462404580152666,3.5101198473282444,-0.041186259541984724,-0.028458778625954174,0.030754198473282417
0.661,1.0,9.127469465648854,-2.4461305343511444,3.5101564885496184,-0.04118396946564885,-0.02845190839694654,0.030746564885496156
0.662,1.0,9.127579389312977,-2.446020610687022,3.5101931297709927,-0.04118167938931297,-0.028445038167938908,0.030738931297709896
0.663,1.0,9.127689312977099,-2.4459106870229004,3.5102297709923667,-0.04117938931297709,-0.028438167938931273,0.03073129770992364
0.664,1.0,9.127799236641222,-2.445800763358778,3.5102664122137406,-0.041177099236641215,-0.02843129770992364,0.030723664122137378
0.665,1.0,9.127909160305343,-2.445690839694656,3.5103030534351145,-0.04117480916030534,-0.028424427480916007,0.030716030534351117
0.666,1.0,9.128019083969466,-2.4455809160305337,3.510339694656489,-0.04117251908396946,-0.028417557251908372,0.03070839694656486
0.667,1.0,9.128129007633587,-2.4454709923664115,3.510376335877863,-0.04117022900763358,-0.02841068702290074,0.0307007633587786
0.668,1.0,9.12823893129771,-2.4453610687022898,3.5104129770992367,-0.0411679389312977,-0.028403816793893106,0.03069312977099234
0.669,1.0,9.128348854961832,-2.4452511450381675,3.5104496183206106,-0.04116564885496182,-0.02839694656488547,0.03068549618320608
0.67,1.0,9.128458778625955,-2.4451412213740453,3.510486259541985,-0.041163358778625946,-0.02839007633587784,0.03067786259541982
0.671,1.0,9.128568702290076,-2.445031297709923,3.510522900763359,-0.04116106870229007,-0.028383206106870205,0.03067022900763356
0.672,1.0,9.128678625954198,-2.444921374045801,3.510559541984733,-0.04115877862595419,-0.02837633587786257,0.0306625954198473
0.673,1.0,9.12878854961832,-2.4448114503816787,3.5105961832061072,-0.041156488549618314,-0.02836946564885494,0.030654961832061043
0.674,1.0,9.128898473282442,-2.444701526717557,3.510632824427481,-0.04115419847328244,-0.028362595419847304,0.030647328244274782
0.675,1.0,9.129008396946565,-2.4445916030534347,3.510669465648855,-0.04115190839694656,-0.02835572519083967,0.030639694656488522
0.676,1.0,9.129118320610687,-2.4444816793893125,3.510706106870229,-0.041149618320610676,-0.028348854961832037,0.030632061068702265
0.677,1.0,9.12922824427481,-2.4443717557251903,3.5107427480916034,-0.0411473282442748,-0.028341984732824402,0.030624427480916004
0.678,1.0,9.129338167938931,-2.444261832061068,3.5107793893129773,-0.04114503816793892,-0.02833511450381677,0.030616793893129744
0.679,1.0,9.129448091603054,-2.444151908396946,3.510816030534351,-0.041142748091603044,-0.028328244274809136,0.030609160305343483
0.68,1.0,9.129558015267175,-2.444041984732824,3.510852671755725,-0.04114045801526717,-0.0283213740458015,0.030601526717557226
0.681,1.0,9.129667938931298,-2.443932061068702,3.5108893129770995,-0.04113816793893129,-0.02831450381679387,0.030593893129770965
0.682,1.0,9.12977786259542,-2.4438221374045797,3.5109259541984734,-0.04113587786259541,-0.028307633587786235,0.030586259541984705
0.683,1.0,9.129887786259543,-2.4437122137404574,3.5109625954198473,-0.041133587786259536,-0.0283007633587786,0.030578625954198448
0.684,1.0,9.129997709923664,-2.4436022900763352,3.5109992366412217,-0.04113129770992366,-0.02829389312977097,0.030570992366412187
0.685,1.0,9.130107633587786,-2.4434923664122135,3.5110358778625956,-0.041129007633587775,-0.028287022900763334,0.030563358778625926
0.686,1.0,9.130217557251909,-2.4433824427480912,3.5110725190839696,-0.0411267175572519,-0.028280152671755703,0.03055572519083967
0.687,1.0,9.13032748091603,-2.443272519083969,3.5111091603053435,-0.04112442748091602,-0.028273282442748068,0.03054809160305341
0.6880000000000001,1.0,9.130437404580153,-2.443162595419847,3.511145801526718,-0.04112213740458014,-0.028266412213740433,0.030540458015267148
0.6890000000000001,1.0,9.130547328244274,-2.4430526717557246,3.5111824427480918,-0.041119847328244266,-0.0282595419847328,0.030532824427480888
0.6900000000000001,1.0,9.130657251908397,-2.4429427480916024,3.5112190839694657,-0.04111755725190839,-0.028252671755725167,0.03052519083969463
0.6910000000000001,1.0,9.130767175572519,-2.4428328244274806,3.5112557251908396,-0.04111526717557251,-0.02824580152671753,0.03051755725190837
0.6920000000000001,1.0,9.130877099236642,-2.4427229007633584,3.511292366412214,-0.041112977099236635,-0.0282389312977099,0.03050992366412211
0.6930000000000001,1.0,9.130987022900763,-2.442612977099236,3.511329007633588,-0.04111068702290076,-0.028232061068702265,0.030502290076335852
0.6940000000000001,1.0,9.131096946564886,-2.442503053435114,3.511365648854962,-0.04110839694656488,-0.02822519083969463,0.03049465648854959
0.6950000000000001,1.0,9.131206870229008,-2.4423931297709918,3.511402290076336,-0.041106106870228996,-0.028218320610687,0.03048702290076333
0.6960000000000001,1.0,9.131316793893129,-2.4422832061068696,3.51143893129771,-0.04110381679389312,-0.028211450381679364,0.030479389312977074
0.6970000000000001,1.0,9.131426717557252,-2.442173282442748,3.511475572519084,-0.04110152671755724,-0.028204580152671733,0.030471755725190813
0.6980000000000001,1.0,9.131536641221373,-2.4420633587786256,3.511512213740458,-0.041099236641221365,-0.028197709923664098,0.030464122137404553
0.6990000000000001,1.0,9.131646564885497,-2.4419534351145034,3.5115488549618323,-0.04109694656488549,-0.028190839694656463,0.030456488549618292
0.7000000000000001,1.0,9.131756488549618,-2.441843511450381,3.5115854961832063,-0.04109465648854961,-0.02818396946564883,0.030448854961832035
0.7010000000000001,1.0,9.131866412213741,-2.441733587786259,3.51162213740458,-0.041092366412213734,-0.028177099236641197,0.030441221374045774
0.7020000000000001,1.0,9.131976335877862,-2.441623664122137,3.511658778625954,-0.041090076335877856,-0.028170229007633562,0.030433587786259514
0.7030000000000001,1.0,9.132086259541985,-2.441513740458015,3.5116954198473285,-0.04108778625954198,-0.02816335877862593,0.030425954198473257
0.704,1.0,9.132196183206107,-2.4414038167938927,3.5117320610687024,-0.041085496183206095,-0.028156488549618296,0.030418320610686996
0.705,1.0,9.13230610687023,-2.4412938931297705,3.5117687022900763,-0.04108320610687022,-0.028149618320610664,0.030410687022900736
0.706,1.0,9.132416030534351,-2.4411839694656483,3.5118053435114507,-0.04108091603053434,-0.02814274809160303,0.03040305343511448
0.707,1.0,9.132525954198472,-2.441074045801526,3.5118419847328246,-0.041078625954198464,-0.028135877862595395,0.030395419847328218
0.708,1.0,9.132635877862596,-2.4409641221374043,3.5118786259541985,-0.04107633587786259,-0.028129007633587763,0.030387786259541957
0.709,1.0,9.132745801526717,-2.440854198473282,3.5119152671755725,-0.04107404580152671,-0.028122137404580128,0.0303801526717557
0.71,1.0,9.13285572519084,-2.44074427480916,3.511951908396947,-0.04107175572519083,-0.028115267175572497,0.03037251908396944
0.711,1.0,9.132965648854961,-2.4406343511450377,3.5119885496183207,-0.041069465648854955,-0.028108396946564862,0.03036488549618318
0.712,1.0,9.133075572519084,-2.4405244274809155,3.5120251908396947,-0.04106717557251908,-0.028101526717557227,0.030357251908396922
0.713,1.0,9.133185496183206,-2.4404145038167933,3.512061832061069,-0.0410648854961832,-0.028094656488549596,0.03034961832061066
0.714,1.0,9.133295419847329,-2.4403045801526715,3.512098473282443,-0.04106259541984732,-0.02808778625954196,0.0303419847328244
0.715,1.0,9.13340534351145,-2.4401946564885493,3.512135114503817,-0.04106030534351144,-0.028080916030534326,0.03033435114503814
0.716,1.0,9.133515267175573,-2.440084732824427,3.512171755725191,-0.04105801526717556,-0.028074045801526695,0.030326717557251883
0.717,1.0,9.133625190839695,-2.439974809160305,3.512208396946565,-0.041055725190839686,-0.02806717557251906,0.030319083969465623
0.718,1.0,9.133735114503818,-2.4398648854961826,3.512245038167939,-0.04105343511450381,-0.02806030534351143,0.030311450381679362
0.719,1.0,9.133845038167939,-2.439754961832061,3.512281679389313,-0.04105114503816793,-0.028053435114503793,0.030303816793893105
0.72,1.0,9.13395496183206,-2.4396450381679387,3.512318320610687,-0.041048854961832054,-0.02804656488549616,0.030296183206106844
0.721,1.0,9.134064885496183,-2.4395351145038164,3.5123549618320613,-0.04104656488549618,-0.028039694656488527,0.030288549618320584
0.722,1.0,9.134174809160305,-2.4394251908396942,3.5123916030534352,-0.0410442748091603,-0.028032824427480892,0.030280916030534327
0.723,1.0,9.134284732824428,-2.439315267175572,3.512428244274809,-0.041041984732824416,-0.028025954198473257,0.030273282442748066
0.724,1.0,9.13439465648855,-2.43920534351145,3.5124648854961835,-0.04103969465648854,-0.028019083969465626,0.030265648854961805
0.725,1.0,9.134504580152672,-2.439095419847328,3.5125015267175574,-0.04103740458015266,-0.02801221374045799,0.030258015267175545
0.726,1.0,9.134614503816794,-2.438985496183206,3.5125381679389314,-0.041035114503816784,-0.028005343511450356,0.030250381679389288
0.727,1.0,9.134724427480917,-2.4388755725190836,3.5125748091603053,-0.04103282442748091,-0.027998473282442725,0.030242748091603027
0.728,1.0,9.134834351145038,-2.4387656488549614,3.5126114503816797,-0.04103053435114503,-0.02799160305343509,0.030235114503816767
0.729,1.0,9.134944274809161,-2.438655725190839,3.5126480916030536,-0.04102824427480915,-0.02798473282442746,0.03022748091603051
0.73,1.0,9.135054198473282,-2.438545801526717,3.5126847328244275,-0.041025954198473276,-0.027977862595419824,0.03021984732824425
0.731,1.0,9.135164122137404,-2.438435877862595,3.5127213740458014,-0.0410236641221374,-0.02797099236641219,0.030212213740457988
0.732,1.0,9.135274045801527,-2.438325954198473,3.512758015267176,-0.04102137404580152,-0.027964122137404557,0.03020458015267173
0.733,1.0,9.135383969465648,-2.4382160305343508,3.5127946564885497,-0.04101908396946564,-0.027957251908396923,0.03019694656488547
0.734,1.0,9.135493893129771,-2.4381061068702286,3.5128312977099236,-0.04101679389312976,-0.027950381679389288,0.03018931297709921
0.735,1.0,9.135603816793893,-2.4379961832061063,3.512867938931298,-0.04101450381679388,-0.027943511450381656,0.03018167938931295
0.736,1.0,9.135713740458016,-2.4378862595419846,3.512904580152672,-0.041012213740458006,-0.02793664122137402,0.030174045801526692
0.737,1.0,9.135823664122137,-2.4377763358778624,3.512941221374046,-0.04100992366412213,-0.02792977099236639,0.03016641221374043
0.738,1.0,9.13593358778626,-2.43766641221374,3.5129778625954198,-0.04100763358778625,-0.027922900763358755,0.03015877862595417
0.739,1.0,9.136043511450382,-2.437556488549618,3.513014503816794,-0.041005343511450375,-0.02791603053435112,0.030151145038167914
0.74,1.0,9.136153435114505,-2.4374465648854957,3.513051145038168,-0.0410030534351145,-0.02790916030534349,0.030143511450381653
0.741,1.0,9.136263358778626,-2.4373366412213735,3.513087786259542,-0.04100076335877862,-0.027902290076335854,0.030135877862595393
0.742,1.0,9.136373282442749,-2.4372267175572517,3.513124427480916,-0.040998473282442736,-0.02789541984732822,0.030128244274809136
0.743,1.0,9.13648320610687,-2.4371167938931295,3.5131610687022903,-0.04099618320610686,-0.027888549618320588,0.030120610687022875
0.744,1.0,9.136593129770992,-2.4370068702290073,3.513197709923664,-0.04099389312977098,-0.027881679389312953,0.030112977099236615
0.745,1.0,9.136703053435115,-2.436896946564885,3.513234351145038,-0.040991603053435105,-0.027874809160305318,0.030105343511450354
0.746,1.0,9.136812977099236,-2.436787022900763,3.5132709923664125,-0.04098931297709923,-0.027867938931297687,0.030097709923664097
0.747,1.0,9.13692290076336,-2.4366770992366407,3.5133076335877864,-0.04098702290076335,-0.027861068702290052,0.030090076335877836
0.748,1.0,9.13703282442748,-2.436567175572519,3.5133442748091603,-0.040984732824427474,-0.02785419847328242,0.030082442748091576
0.749,1.0,9.137142748091604,-2.4364572519083967,3.5133809160305343,-0.040982442748091596,-0.027847328244274785,0.03007480916030532
0.75,1.0,9.137252671755725,-2.4363473282442745,3.5134175572519086,-0.04098015267175572,-0.02784045801526715,0.030067175572519058
0.751,1.0,9.137362595419848,-2.4362374045801523,3.5134541984732826,-0.040977862595419835,-0.02783358778625952,0.030059541984732797
0.752,1.0,9.13747251908397,-2.43612748091603,3.5134908396946565,-0.04097557251908396,-0.027826717557251884,0.03005190839694654
0.753,1.0,9.137582442748093,-2.4360175572519083,3.5135274809160304,-0.04097328244274808,-0.02781984732824425,0.03004427480916028
0.754,1.0,9.137692366412214,-2.435907633587786,3.5135641221374048,-0.040970992366412204,-0.027812977099236618,0.03003664122137402
0.755,1.0,9.137802290076335,-2.435797709923664,3.5136007633587787,-0.04096870229007633,-0.027806106870228983,0.03002900763358776
0.756,1.0,9.137912213740458,-2.4356877862595416,3.5136374045801526,-0.04096641221374045,-0.027799236641221352,0.0300213740458015
0.757,1.0,9.13802213740458,-2.4355778625954194,3.513674045801527,-0.04096412213740457,-0.027792366412213717,0.03001374045801524
0.758,1.0,9.138132061068703,-2.435467938931297,3.513710687022901,-0.040961832061068695,-0.027785496183206082,0.03000610687022898
0.759,1.0,9.138241984732824,-2.4353580152671754,3.513747328244275,-0.04095954198473282,-0.02777862595419845,0.029998473282442723
0.76,1.0,9.138351908396947,-2.4352480916030532,3.5137839694656487,-0.04095725190839694,-0.027771755725190816,0.029990839694656463
0.761,1.0,9.138461832061068,-2.435138167938931,3.513820610687023,-0.04095496183206106,-0.02776488549618318,0.029983206106870202
0.762,1.0,9.138571755725192,-2.435028244274809,3.513857251908397,-0.04095267175572518,-0.02775801526717555,0.029975572519083945
0.763,1.0,9.138681679389313,-2.4349183206106866,3.513893893129771,-0.0409503816793893,-0.027751145038167915,0.029967938931297684
0.764,1.0,9.138791603053436,-2.4348083969465644,3.5139305343511453,-0.040948091603053426,-0.02774427480916028,0.029960305343511424
0.765,1.0,9.138901526717557,-2.4346984732824426,3.5139671755725193,-0.04094580152671755,-0.02773740458015265,0.029952671755725163
0.766,1.0,9.13901145038168,-2.4345885496183204,3.514003816793893,-0.04094351145038167,-0.027730534351145013,0.029945038167938906
0.767,1.0,9.139121374045802,-2.434478625954198,3.514040458015267,-0.040941221374045794,-0.027723664122137382,0.029937404580152645
0.768,1.0,9.139231297709923,-2.434368702290076,3.5140770992366415,-0.04093893129770992,-0.027716793893129747,0.029929770992366385
0.769,1.0,9.139341221374046,-2.4342587786259537,3.5141137404580154,-0.04093664122137404,-0.027709923664122112,0.029922137404580128
0.77,1.0,9.139451145038167,-2.434148854961832,3.5141503816793893,-0.040934351145038156,-0.02770305343511448,0.029914503816793867
0.771,1.0,9.13956106870229,-2.4340389312977098,3.5141870229007632,-0.04093206106870228,-0.027696183206106846,0.029906870229007607
0.772,1.0,9.139670992366412,-2.4339290076335875,3.5142236641221376,-0.0409297709923664,-0.02768931297709921,0.02989923664122135
0.773,1.0,9.139780916030535,-2.4338190839694653,3.5142603053435115,-0.040927480916030524,-0.02768244274809158,0.02989160305343509
0.774,1.0,9.139890839694656,-2.433709160305343,3.5142969465648854,-0.04092519083969465,-0.027675572519083945,0.02988396946564883
0.775,1.0,9.14000076335878,-2.433599236641221,3.51433358778626,-0.04092290076335877,-0.027668702290076314,0.029876335877862568
0.776,1.0,9.1401106870229,-2.433489312977099,3.5143702290076337,-0.04092061068702289,-0.02766183206106868,0.02986870229007631
0.777,1.0,9.140220610687024,-2.433379389312977,3.5144068702290077,-0.040918320610687016,-0.027654961832061044,0.02986106870229005
0.778,1.0,9.140330534351145,-2.4332694656488547,3.5144435114503816,-0.04091603053435114,-0.027648091603053412,0.02985343511450379
0.779,1.0,9.140440458015267,-2.4331595419847325,3.514480152671756,-0.040913740458015255,-0.027641221374045778,0.029845801526717532
0.78,1.0,9.14055038167939,-2.4330496183206103,3.51451679389313,-0.04091145038167938,-0.027634351145038143,0.029838167938931272
0.781,1.0,9.140660305343511,-2.432939694656488,3.514553435114504,-0.0409091603053435,-0.02762748091603051,0.02983053435114501
0.782,1.0,9.140770229007634,-2.4328297709923663,3.5145900763358777,-0.04090687022900762,-0.027620610687022876,0.02982290076335875
0.783,1.0,9.140880152671755,-2.432719847328244,3.514626717557252,-0.040904580152671746,-0.02761374045801524,0.029815267175572494
0.784,1.0,9.140990076335878,-2.432609923664122,3.514663358778626,-0.04090229007633587,-0.02760687022900761,0.029807633587786233
0.785,1.0,9.1411,-2.4325,3.5147,-0.0409,-0.027600000000000034,0.029799999999999983
0.786,1.0,9.1411,-2.4324633587786257,3.5146633587786256,-0.04089923664122137,-0.027609923664122172,0.02979541984732823
0.787,1.0,9.1411,-2.432426717557252,3.5146267175572516,-0.04089847328244275,-0.02761984732824431,0.029790839694656474
0.788,1.0,9.1411,-2.432390076335878,3.5145900763358777,-0.04089770992366412,-0.027629770992366447,0.029786259541984716
0.789,1.0,9.1411,-2.432353435114504,3.514553435114504,-0.04089694656488549,-0.02763969465648858,0.029781679389312962
0.79,1.0,9.1411,-2.4323167938931296,3.5145167938931294,-0.04089618320610686,-0.02764961832061072,0.029777099236641204
0.791,1.0,9.1411,-2.4322801526717557,3.5144801526717555,-0.04089541984732824,-0.027659541984732857,0.02977251908396945
0.792,1.0,9.1411,-2.4322435114503818,3.5144435114503816,-0.04089465648854961,-0.027669465648854995,0.029767938931297696
0.793,1.0,9.1411,-2.432206870229008,3.5144068702290077,-0.040893893129770986,-0.027679389312977132,0.029763358778625938
0.794,1.0,9.1411,-2.4321702290076335,3.5143702290076333,-0.04089312977099236,-0.02768931297709927,0.029758778625954184
0.795,1.0,9.1411,-2.4321335877862595,3.5143335877862594,-0.040892366412213735,-0.027699236641221408,0.029754198473282426
0.796,1.0,9.1411,-2.4320969465648856,3.5142969465648854,-0.04089160305343511,-0.027709160305343546,0.029749618320610672
0.797,1.0,9.1411,-2.4320603053435113,3.514260305343511,-0.04089083969465648,-0.027719083969465683,0.029745038167938914
0.798,1.0,9.1411,-2.4320236641221373,3.514223664122137,-0.04089007633587786,-0.02772900763358782,0.02974045801526716
0.799,1.0,9.1411,-2.4319870229007634,3.5141870229007632,-0.04088931297709923,-0.02773893129770996,0.029735877862595406
0.8,1.0,9.1411,-2.4319503816793895,3.5141503816793893,-0.040888549618320606,-0.027748854961832093,0.029731297709923648
0.801,1.0,9.1411,-2.431913740458015,3.514113740458015,-0.04088778625954198,-0.02775877862595423,0.029726717557251894
0.802,1.0,9.1411,-2.431877099236641,3.514077099236641,-0.040887022900763355,-0.02776870229007637,0.029722137404580136
0.803,1.0,9.1411,-2.4318404580152673,3.514040458015267,-0.04088625954198473,-0.027778625954198506,0.02971755725190838
0.804,1.0,9.1411,-2.431803816793893,3.5140038167938927,-0.0408854961832061,-0.027788549618320644,0.029712977099236627
0.805,1.0,9.1411,-2.431767175572519,3.513967175572519,-0.04088473282442748,-0.02779847328244278,0.02970839694656487
0.806,1.0,9.1411,-2.431730534351145,3.513930534351145,-0.04088396946564885,-0.02780839694656492,0.029703816793893115
0.807,1.0,9.1411,-2.431693893129771,3.513893893129771,-0.040883206106870226,-0.027818320610687057,0.029699236641221358
0.808,1.0,9.1411,-2.4316572519083968,3.5138572519083966,-0.0408824427480916,-0.027828244274809195,0.029694656488549603
0.809,1.0,9.1411,-2.431620610687023,3.5138206106870227,-0.040881679389312975,-0.027838167938931332,0.029690076335877846
0.81,1.0,9.1411,-2.431583969465649,3.5137839694656487,-0.04088091603053435,-0.027848091603053467,0.02968549618320609
0.811,1.0,9.1411,-2.431547328244275,3.513747328244275,-0.04088015267175572,-0.027858015267175604,0.029680916030534337
0.812,1.0,9.1411,-2.4315106870229006,3.5137106870229005,-0.0408793893129771,-0.027867938931297742,0.02967633587786258
0.8130000000000001,1.0,9.1411,-2.4314740458015267,3.5136740458015265,-0.04087862595419847,-0.02787786259541988,0.029671755725190825
0.8140000000000001,1.0,9.1411,-2.431437404580153,3.5136374045801526,-0.040877862595419846,-0.027887786259542018,0.029667175572519067
0.8150000000000001,1.0,9.1411,-2.4314007633587784,3.5136007633587782,-0.04087709923664122,-0.027897709923664155,0.029662595419847313
0.8160000000000001,1.0,9.1411,-2.4313641221374045,3.5135641221374043,-0.040876335877862595,-0.027907633587786293,0.029658015267175555
0.8170000000000001,1.0,9.1411,-2.4313274809160306,3.5135274809160304,-0.04087557251908397,-0.02791755725190843,0.0296534351145038
0.8180000000000001,1.0,9.1411,-2.4312908396946566,3.5134908396946565,-0.04087480916030534,-0.02792748091603057,0.029648854961832047
0.8190000000000001,1.0,9.1411,-2.4312541984732823,3.513454198473282,-0.04087404580152672,-0.027937404580152706,0.02964427480916029
0.8200000000000001,1.0,9.1411,-2.4312175572519084,3.513417557251908,-0.04087328244274809,-0.027947328244274844,0.029639694656488535
0.8210000000000001,1.0,9.1411,-2.4311809160305344,3.5133809160305343,-0.040872519083969466,-0.027957251908396978,0.029635114503816777
0.8220000000000001,1.0,9.1411,-2.4311442748091605,3.5133442748091603,-0.040871755725190834,-0.027967175572519116,0.029630534351145023
0.8230000000000001,1.0,9.1411,-2.431107633587786,3.513307633587786,-0.04087099236641221,-0.027977099236641254,0.02962595419847327
0.8240000000000001,1.0,9.1411,-2.431070992366412,3.513270992366412,-0.04087022900763358,-0.02798702290076339,0.02962137404580151
0.8250000000000001,1.0,9.1411,-2.4310343511450383,3.513234351145038,-0.040869465648854957,-0.02799694656488553,0.029616793893129757
0.8260000000000001,1.0,9.1411,-2.430997709923664,3.5131977099236638,-0.04086870229007633,-0.028006870229007667,0.029612213740458
0.8270000000000001,1.0,9.1411,-2.43096106870229,3.51316106870229,-0.040867938931297705,-0.028016793893129804,0.029607633587786245
0.8280000000000001,1.0,9.1411,-2.430924427480916,3.513124427480916,-0.04086717557251908,-0.028026717557251942,0.029603053435114487
0.8290000000000001,1.0,9.1411,-2.430887786259542,3.513087786259542,-0.040866412213740454,-0.02803664122137408,0.029598473282442733
0.8300000000000001,1.0,9.1411,-2.430851145038168,3.5130511450381676,-0.04086564885496183,-0.028046564885496218,0.02959389312977098
0.8310000000000001,1.0,9.1411,-2.430814503816794,3.5130145038167937,-0.0408648854961832,-0.028056488549618355,0.02958931297709922
0.8320000000000001,1.0,9.1411,-2.43077786259542,3.5129778625954198,-0.04086412213740458,-0.02806641221374049,0.029584732824427466
0.833,1.0,9.1411,-2.430741221374046,3.512941221374046,-0.04086335877862595,-0.028076335877862627,0.029580152671755712
0.834,1.0,9.1411,-2.4307045801526717,3.5129045801526715,-0.040862595419847325,-0.028086259541984765,0.029575572519083954
0.835,1.0,9.1411,-2.4306679389312977,3.5128679389312976,-0.0408618320610687,-0.028096183206106903,0.0295709923664122
0.836,1.0,9.1411,-2.430631297709924,3.5128312977099236,-0.040861068702290074,-0.02810610687022904,0.029566412213740442
0.837,1.0,9.1411,-2.4305946564885494,3.5127946564885493,-0.04086030534351145,-0.028116030534351178,0.029561832061068688
0.838,1.0,9.1411,-2.4305580152671755,3.5127580152671753,-0.04085954198473282,-0.028125954198473316,0.02955725190839693
0.839,1.0,9.1411,-2.4305213740458016,3.5127213740458014,-0.0408587786259542,-0.02813587786259545,0.029552671755725176
0.84,1.0,9.1411,-2.4304847328244277,3.5126847328244275,-0.04085801526717557,-0.028145801526717588,0.02954809160305342
0.841,1.0,9.1411,-2.4304480916030533,3.512648091603053,-0.040857251908396945,-0.028155725190839725,0.029543511450381664
0.842,1.0,9.1411,-2.4304114503816794,3.512611450381679,-0.04085648854961832,-0.028165648854961863,0.02953893129770991
0.843,1.0,9.1411,-2.4303748091603055,3.5125748091603053,-0.040855725190839694,-0.028175572519084,0.029534351145038152
0.844,1.0,9.1411,-2.4303381679389315,3.5125381679389314,-0.04085496183206107,-0.02818549618320614,0.029529770992366398
0.845,1.0,9.1411,-2.430301526717557,3.512501526717557,-0.04085419847328244,-0.028195419847328276,0.02952519083969464
0.846,1.0,9.1411,-2.4302648854961832,3.512464885496183,-0.04085343511450382,-0.028205343511450414,0.029520610687022886
0.847,1.0,9.1411,-2.4302282442748093,3.512428244274809,-0.04085267175572519,-0.028215267175572552,0.02951603053435113
0.848,1.0,9.1411,-2.430191603053435,3.512391603053435,-0.040851908396946565,-0.02822519083969469,0.029511450381679374
0.849,1.0,9.1411,-2.430154961832061,3.512354961832061,-0.04085114503816794,-0.028235114503816827,0.02950687022900762
0.85,1.0,9.1411,-2.430118320610687,3.512318320610687,-0.040850381679389314,-0.02824503816793896,0.02950229007633586
0.851,1.0,9.1411,-2.430081679389313,3.512281679389313,-0.04084961832061069,-0.0282549618320611,0.029497709923664107
0.852,1.0,9.1411,-2.430045038167939,3.5122450381679386,-0.04084885496183206,-0.028264885496183237,0.029493129770992353
0.853,1.0,9.1411,-2.430008396946565,3.5122083969465647,-0.04084809160305344,-0.028274809160305375,0.029488549618320595
0.854,1.0,9.1411,-2.429971755725191,3.512171755725191,-0.04084732824427481,-0.028284732824427512,0.02948396946564884
0.855,1.0,9.1411,-2.4299351145038166,3.5121351145038164,-0.040846564885496185,-0.02829465648854965,0.029479389312977083
0.856,1.0,9.1411,-2.4298984732824427,3.5120984732824425,-0.04084580152671755,-0.028304580152671788,0.02947480916030533
0.857,1.0,9.1411,-2.4298618320610688,3.5120618320610686,-0.04084503816793893,-0.028314503816793925,0.02947022900763357
0.858,1.0,9.1411,-2.429825190839695,3.5120251908396947,-0.0408442748091603,-0.028324427480916063,0.029465648854961817
0.859,1.0,9.1411,-2.4297885496183205,3.5119885496183203,-0.040843511450381675,-0.0283343511450382,0.029461068702290063
0.86,1.0,9.1411,-2.4297519083969465,3.5119519083969464,-0.04084274809160305,-0.028344274809160335,0.029456488549618305
0.861,1.0,9.1411,-2.4297152671755726,3.5119152671755725,-0.040841984732824424,-0.028354198473282473,0.02945190839694655
0.862,1.0,9.1411,-2.4296786259541987,3.5118786259541985,-0.0408412213740458,-0.02836412213740461,0.029447328244274793
0.863,1.0,9.1411,-2.4296419847328243,3.511841984732824,-0.04084045801526717,-0.02837404580152675,0.02944274809160304
0.864,1.0,9.1411,-2.4296053435114504,3.5118053435114502,-0.04083969465648855,-0.028383969465648886,0.029438167938931285
0.865,1.0,9.1411,-2.4295687022900765,3.5117687022900763,-0.04083893129770992,-0.028393893129771024,0.029433587786259527
0.866,1.0,9.1411,-2.429532061068702,3.511732061068702,-0.040838167938931295,-0.02840381679389316,0.029429007633587773
0.867,1.0,9.1411,-2.429495419847328,3.511695419847328,-0.04083740458015267,-0.0284137404580153,0.029424427480916015
0.868,1.0,9.1411,-2.4294587786259543,3.511658778625954,-0.040836641221374044,-0.028423664122137437,0.02941984732824426
0.869,1.0,9.1411,-2.4294221374045804,3.51162213740458,-0.04083587786259542,-0.028433587786259575,0.029415267175572503
0.87,1.0,9.1411,-2.429385496183206,3.511585496183206,-0.04083511450381679,-0.028443511450381712,0.02941068702290075
0.871,1.0,9.1411,-2.429348854961832,3.511548854961832,-0.04083435114503817,-0.028453435114503847,0.029406106870228994
0.872,1.0,9.1411,-2.429312213740458,3.511512213740458,-0.04083358778625954,-0.028463358778625984,0.029401526717557237
0.873,1.0,9.1411,-2.429275572519084,3.511475572519084,-0.040832824427480915,-0.028473282442748122,0.029396946564885482
0.874,1.0,9.1411,-2.42923893129771,3.5114389312977097,-0.04083206106870229,-0.02848320610687026,0.029392366412213725
0.875,1.0,9.1411,-2.429202290076336,3.5114022900763358,-0.040831297709923664,-0.028493129770992397,0.02938778625954197
0.876,1.0,9.1411,-2.429165648854962,3.511365648854962,-0.04083053435114504,-0.028503053435114535,0.029383206106870216
0.877,1.0,9.1411,-2.4291290076335876,3.5113290076335875,-0.04082977099236641,-0.028512977099236673,0.02937862595419846
0.878,1.0,9.1411,-2.4290923664122137,3.5112923664122135,-0.04082900763358779,-0.02852290076335881,0.029374045801526704
0.879,1.0,9.1411,-2.42905572519084,3.5112557251908396,-0.04082824427480916,-0.028532824427480948,0.029369465648854946
0.88,1.0,9.1411,-2.429019083969466,3.5112190839694657,-0.040827480916030535,-0.028542748091603086,0.029364885496183192
0.881,1.0,9.1411,-2.4289824427480915,3.5111824427480913,-0.04082671755725191,-0.02855267175572522,0.029360305343511434
0.882,1.0,9.1411,-2.4289458015267176,3.5111458015267174,-0.040825954198473284,-0.028562595419847358,0.02935572519083968
0.883,1.0,9.1411,-2.4289091603053437,3.5111091603053435,-0.04082519083969466,-0.028572519083969496,0.029351145038167926
0.884,1.0,9.1411,-2.4288725190839697,3.5110725190839696,-0.04082442748091603,-0.028582442748091633,0.029346564885496168
0.885,1.0,9.1411,-2.4288358778625954,3.511035877862595,-0.04082366412213741,-0.02859236641221377,0.029341984732824414
0.886,1.0,9.1411,-2.4287992366412214,3.5109992366412213,-0.04082290076335878,-0.02860229007633591,0.029337404580152656
0.887,1.0,9.1411,-2.4287625954198475,3.5109625954198473,-0.040822137404580155,-0.028612213740458046,0.029332824427480902
0.888,1.0,9.1411,-2.428725954198473,3.510925954198473,-0.04082137404580152,-0.028622137404580184,0.029328244274809144
0.889,1.0,9.1411,-2.4286893129770992,3.510889312977099,-0.0408206106870229,-0.028632061068702322,0.02932366412213739
0.89,1.0,9.1411,-2.4286526717557253,3.510852671755725,-0.04081984732824427,-0.02864198473282446,0.029319083969465635
0.891,1.0,9.1411,-2.4286160305343514,3.510816030534351,-0.040819083969465646,-0.028651908396946597,0.029314503816793878
0.892,1.0,9.1411,-2.428579389312977,3.510779389312977,-0.04081832061068702,-0.02866183206106873,0.029309923664122123
0.893,1.0,9.1411,-2.428542748091603,3.510742748091603,-0.040817557251908394,-0.02867175572519087,0.029305343511450366
0.894,1.0,9.1411,-2.428506106870229,3.510706106870229,-0.04081679389312977,-0.028681679389313007,0.02930076335877861
0.895,1.0,9.1411,-2.4284694656488552,3.510669465648855,-0.04081603053435114,-0.028691603053435145,0.029296183206106857
0.896,1.0,9.1411,-2.428432824427481,3.5106328244274807,-0.04081526717557252,-0.028701526717557282,0.0292916030534351
0.897,1.0,9.1411,-2.428396183206107,3.510596183206107,-0.04081450381679389,-0.02871145038167942,0.029287022900763345
0.898,1.0,9.1411,-2.428359541984733,3.510559541984733,-0.040813740458015266,-0.028721374045801558,0.029282442748091587
0.899,1.0,9.1411,-2.4283229007633587,3.5105229007633585,-0.04081297709923664,-0.028731297709923696,0.029277862595419833
0.9,1.0,9.1411,-2.4282862595419847,3.5104862595419846,-0.040812213740458014,-0.028741221374045833,0.029273282442748075
0.901,1.0,9.1411,-2.428249618320611,3.5104496183206106,-0.04081145038167939,-0.02875114503816797,0.02926870229007632
0.902,1.0,9.1411,-2.428212977099237,3.5104129770992367,-0.04081068702290076,-0.02876106870229011,0.029264122137404567
0.903,1.0,9.1411,-2.4281763358778625,3.5103763358778624,-0.04080992366412214,-0.028770992366412243,0.02925954198473281
0.904,1.0,9.1411,-2.4281396946564886,3.5103396946564884,-0.04080916030534351,-0.02878091603053438,0.029254961832061055
0.905,1.0,9.1411,-2.4281030534351147,3.5103030534351145,-0.040808396946564886,-0.02879083969465652,0.029250381679389297
0.906,1.0,9.1411,-2.4280664122137403,3.51026641221374,-0.04080763358778626,-0.028800763358778656,0.029245801526717543
0.907,1.0,9.1411,-2.4280297709923664,3.510229770992366,-0.040806870229007634,-0.028810687022900794,0.02924122137404579
0.908,1.0,9.1411,-2.4279931297709925,3.5101931297709923,-0.04080610687022901,-0.02882061068702293,0.02923664122137403
0.909,1.0,9.1411,-2.4279564885496185,3.5101564885496184,-0.04080534351145038,-0.02883053435114507,0.029232061068702277
0.91,1.0,9.1411,-2.427919847328244,3.510119847328244,-0.04080458015267176,-0.028840458015267207,0.02922748091603052
0.911,1.0,9.1411,-2.4278832061068703,3.51008320610687,-0.04080381679389313,-0.028850381679389345,0.029222900763358765
0.912,1.0,9.1411,-2.4278465648854963,3.510046564885496,-0.040803053435114506,-0.028860305343511482,0.029218320610687007
0.913,1.0,9.1411,-2.4278099236641224,3.5100099236641222,-0.04080229007633588,-0.02887022900763362,0.029213740458015253
0.914,1.0,9.1411,-2.427773282442748,3.509973282442748,-0.040801526717557254,-0.028880152671755754,0.0292091603053435
0.915,1.0,9.1411,-2.427736641221374,3.509936641221374,-0.04080076335877863,-0.028890076335877892,0.02920458015267174
0.916,1.0,9.1411,-2.4277,3.5099,-0.04080000000000002,-0.028900000000000012,0.02920000000000002
0.917,1.0,9.141136923076923,-2.4277,3.509863076923077,-0.040804615384615404,-0.028903846153846165,0.0292069230769231
0.918,1.0,9.141173846153846,-2.4277,3.509826153846154,-0.040809230769230785,-0.028907692307692318,0.029213846153846177
0.919,1.0,9.141210769230769,-2.4277,3.509789230769231,-0.04081384615384617,-0.028911538461538475,0.029220769230769255
0.92,1.0,9.141247692307692,-2.4277,3.5097523076923074,-0.04081846153846155,-0.028915384615384628,0.02922769230769233
0.921,1.0,9.141284615384615,-2.4277,3.5097153846153843,-0.04082307692307694,-0.02891923076923078,0.029234615384615407
0.922,1.0,9.141321538461538,-2.4277,3.5096784615384613,-0.04082769230769233,-0.028923076923076933,0.029241538461538485
0.923,1.0,9.141358461538461,-2.4277,3.5096415384615383,-0.04083230769230771,-0.02892692307692309,0.029248461538461563
0.924,1.0,9.141395384615384,-2.4277,3.509604615384615,-0.0408369230769231,-0.028930769230769243,0.02925538461538464
0.925,1.0,9.141432307692307,-2.4277,3.509567692307692,-0.04084153846153848,-0.028934615384615395,0.029262307692307716
0.926,1.0,9.14146923076923,-2.4277,3.509530769230769,-0.040846153846153865,-0.028938461538461552,0.029269230769230794
0.927,1.0,9.141506153846153,-2.4277,3.509493846153846,-0.04085076923076925,-0.028942307692307705,0.029276153846153872
0.928,1.0,9.141543076923076,-2.4277,3.509456923076923,-0.040855384615384634,-0.028946153846153858,0.02928307692307695
0.929,1.0,9.14158,-2.4277,3.50942,-0.04086000000000002,-0.028950000000000014,0.029290000000000024
0.93,1.0,9.141616923076922,-2.4277,3.509383076923077,-0.0408646153846154,-0.028953846153846167,0.029296923076923102
0.931,1.0,9.141653846153845,-2.4277,3.509346153846154,-0.04086923076923079,-0.02895769230769232,0.02930384615384618
0.932,1.0,9.141690769230769,-2.4277,3.509309230769231,-0.04087384615384618,-0.028961538461538476,0.02931076923076926
0.933,1.0,9.141727692307692,-2.4277,3.509272307692308,-0.04087846153846156,-0.02896538461538463,0.029317692307692333
0.934,1.0,9.141764615384615,-2.4277,3.5092353846153843,-0.040883076923076946,-0.028969230769230782,0.02932461538461541
0.935,1.0,9.141801538461538,-2.4277,3.5091984615384613,-0.040887692307692326,-0.028973076923076938,0.02933153846153849
0.936,1.0,9.14183846153846,-2.4277,3.509161538461538,-0.040892307692307714,-0.02897692307692309,0.029338461538461567
0.937,1.0,9.141875384615384,-2.4277,3.509124615384615,-0.040896923076923095,-0.028980769230769244,0.02934538461538464
0.9380000000000001,1.0,9.141912307692307,-2.4277,3.509087692307692,-0.04090153846153848,-0.0289846153846154,0.02935230769230772
0.9390000000000001,1.0,9.14194923076923,-2.4277,3.509050769230769,-0.04090615384615387,-0.028988461538461553,0.029359230769230797
0.9400000000000001,1.0,9.141986153846153,-2.4277,3.509013846153846,-0.04091076923076925,-0.028992307692307706,0.029366153846153875
0.9410000000000001,1.0,9.142023076923076,-2.4277,3.508976923076923,-0.04091538461538464,-0.02899615384615386,0.029373076923076953
0.9420000000000001,1.0,9.142059999999999,-2.4277,3.50894,-0.04092000000000002,-0.029000000000000015,0.029380000000000028
0.9430000000000001,1.0,9.142096923076924,-2.4277,3.508903076923077,-0.040924615384615406,-0.029003846153846168,0.029386923076923106
0.9440000000000001,1.0,9.142133846153847,-2.4277,3.508866153846154,-0.040929230769230794,-0.02900769230769232,0.029393846153846184
0.9450000000000001,1.0,9.14217076923077,-2.4277,3.508829230769231,-0.040933846153846175,-0.029011538461538477,0.02940076923076926
0.9460000000000001,1.0,9.142207692307693,-2.4277,3.5087923076923078,-0.04093846153846156,-0.02901538461538463,0.029407692307692336
0.9470000000000001,1.0,9.142244615384616,-2.4277,3.5087553846153843,-0.04094307692307694,-0.029019230769230783,0.029414615384615414
0.9480000000000001,1.0,9.142281538461539,-2.4277,3.5087184615384612,-0.04094769230769233,-0.02902307692307694,0.029421538461538492
0.9490000000000001,1.0,9.142318461538462,-2.4277,3.508681538461538,-0.04095230769230771,-0.029026923076923093,0.02942846153846157
0.9500000000000001,1.0,9.142355384615385,-2.4277,3.508644615384615,-0.0409569230769231,-0.029030769230769245,0.029435384615384644
0.9510000000000001,1.0,9.142392307692308,-2.4277,3.508607692307692,-0.04096153846153849,-0.029034615384615402,0.029442307692307722
0.9520000000000001,1.0,9.142429230769231,-2.4277,3.508570769230769,-0.04096615384615387,-0.029038461538461555,0.0294492307692308
0.9530000000000001,1.0,9.142466153846154,-2.4277,3.508533846153846,-0.040970769230769255,-0.029042307692307708,0.02945615384615388
0.9540000000000001,1.0,9.142503076923077,-2.4277,3.508496923076923,-0.040975384615384636,-0.029046153846153864,0.029463076923076953
0.9550000000000001,1.0,9.14254,-2.4277,3.50846,-0.04098000000000002,-0.029050000000000017,0.02947000000000003
0.9560000000000001,1.0,9.142576923076923,-2.4277,3.508423076923077,-0.04098461538461541,-0.02905384615384617,0.02947692307692311
0.9570000000000001,1.0,9.142613846153846,-2.4277,3.508386153846154,-0.04098923076923079,-0.029057692307692326,0.029483846153846187
