Time,Sensor ID,Accel X (m/s^2),Accel Y (m/s^2),Accel Z (m/s^2),Gyro X (rad/s),Gyro Y (rad/s),Gyro Z (rad/s)
0.0,1.0,8.9495,-3.4764,-3.5865,-0.0811,-0.0032,0.0015
0.001,1.0,8.949573846153847,-3.476326153846154,-3.5865,-0.08109846153846155,-0.003198461538461539,0.00151230769230769
0.002,1.0,8.949647692307693,-3.4762523076923078,-3.5865,-0.08109692307692308,-0.0031969230769230777,0.0015246153846153801
0.003,1.0,8.949721538461539,-3.4761784615384617,-3.5865,-0.08109538461538462,-0.0031953846153846164,0.0015369230769230703
0.004,1.0,8.949795384615385,-3.4761046153846156,-3.5865,-0.08109384615384616,-0.003193846153846155,0.0015492307692307602
0.005,1.0,8.949869230769231,-3.476030769230769,-3.5865,-0.0810923076923077,-0.003192307692307694,0.0015615384615384502
0.006,1.0,8.949943076923077,-3.475956923076923,-3.5865,-0.08109076923076924,-0.0031907692307692327,0.0015738461538461403
0.007,1.0,8.950016923076923,-3.475883076923077,-3.5865,-0.08108923076923077,-0.0031892307692307715,0.0015861538461538305
0.008,1.0,8.95009076923077,-3.4758092307692308,-3.5865,-0.08108769230769232,-0.00318769230769231,0.0015984615384615204
0.009000000000000001,1.0,8.950164615384615,-3.4757353846153847,-3.5865,-0.08108615384615385,-0.003186153846153849,0.0016107692307692103
0.01,1.0,8.950238461538461,-3.4756615384615386,-3.5865,-0.0810846153846154,-0.0031846153846153877,0.0016230769230769005
0.011,1.0,8.950312307692307,-3.4755876923076925,-3.5865,-0.08108307692307692,-0.0031830769230769265,0.0016353846153845904
0.012,1.0,8.950386153846154,-3.4755138461538464,-3.5865,-0.08108153846153847,-0.0031815384615384652,0.0016476923076922806
0.013000000000000001,1.0,8.95046,-3.4754400000000003,-3.5865,-0.08108000000000001,-0.0031800000000000036,0.0016599999999999705
0.014,1.0,8.950533846153846,-3.4753661538461538,-3.5865,-0.08107846153846154,-0.0031784615384615423,0.0016723076923076607
0.015,1.0,8.950607692307692,-3.4752923076923077,-3.5865,-0.08107692307692309,-0.003176923076923081,0.0016846153846153506
0.016,1.0,8.950681538461538,-3.4752184615384616,-3.5865,-0.08107538461538462,-0.00317538461538462,0.0016969230769230408
0.017,1.0,8.950755384615384,-3.4751446153846155,-3.5865,-0.08107384615384616,-0.0031738461538461586,0.0017092307692307307
0.018000000000000002,1.0,8.95082923076923,-3.4750707692307694,-3.5865,-0.08107230769230771,-0.0031723076923076974,0.0017215384615384209
0.019,1.0,8.950903076923076,-3.4749969230769233,-3.5865,-0.08107076923076924,-0.003170769230769236,0.0017338461538461108
0.02,1.0,8.950976923076922,-3.4749230769230772,-3.5865,-0.08106923076923078,-0.003169230769230775,0.001746153846153801
0.021,1.0,8.951050769230768,-3.474849230769231,-3.5865,-0.08106769230769231,-0.0031676923076923136,0.001758461538461491
0.022,1.0,8.951124615384616,-3.474775384615385,-3.5865,-0.08106615384615386,-0.0031661538461538524,0.001770769230769181
0.023,1.0,8.951198461538462,-3.474701538461539,-3.5865,-0.0810646153846154,-0.003164615384615391,0.0017830769230768712
0.024,1.0,8.951272307692308,-3.4746276923076924,-3.5865,-0.08106307692307693,-0.00316307692307693,0.0017953846153845611
0.025,1.0,8.951346153846155,-3.4745538461538463,-3.5865,-0.08106153846153848,-0.0031615384615384687,0.001807692307692251
0.026000000000000002,1.0,8.95142,-3.4744800000000002,-3.5865,-0.08106000000000001,-0.0031600000000000074,0.0018199999999999412
0.027,1.0,8.951493846153847,-3.474406153846154,-3.5865,-0.08105846153846155,-0.003158461538461546,0.0018323076923076312
0.028,1.0,8.951567692307693,-3.474332307692308,-3.5865,-0.0810569230769231,-0.003156923076923085,0.0018446153846153213
0.029,1.0,8.951641538461539,-3.474258461538462,-3.5865,-0.08105538461538463,-0.0031553846153846237,0.0018569230769230113
0.03,1.0,8.951715384615385,-3.474184615384616,-3.5865,-0.08105384615384617,-0.0031538461538461625,0.0018692307692307014
0.031,1.0,8.951789230769231,-3.47411076923077,-3.5865,-0.0810523076923077,-0.003152307692307701,0.0018815384615383914
0.032,1.0,8.951863076923077,-3.4740369230769237,-3.5865,-0.08105076923076925,-0.00315076923076924,0.0018938461538460815
0.033,1.0,8.951936923076923,-3.473963076923077,-3.5865,-0.08104923076923078,-0.0031492307692307787,0.0019061538461537715
0.034,1.0,8.95201076923077,-3.473889230769231,-3.5865,-0.08104769230769232,-0.0031476923076923175,0.0019184615384614616
0.035,1.0,8.952084615384615,-3.473815384615385,-3.5865,-0.08104615384615386,-0.0031461538461538562,0.0019307692307691518
0.036000000000000004,1.0,8.952158461538462,-3.473741538461539,-3.5865,-0.0810446153846154,-0.003144615384615395,0.0019430769230768417
0.037,1.0,8.952232307692308,-3.473667692307693,-3.5865,-0.08104307692307694,-0.0031430769230769333,0.0019553846153845316
0.038,1.0,8.952306153846154,-3.4735938461538467,-3.5865,-0.08104153846153847,-0.003141538461538472,0.0019676923076922216
0.039,1.0,8.95238,-3.4735200000000006,-3.5865,-0.08104000000000001,-0.003140000000000011,0.001979999999999912
0.04,1.0,8.952453846153846,-3.4734461538461545,-3.5865,-0.08103846153846156,-0.0031384615384615496,0.001992307692307602
0.041,1.0,8.952527692307692,-3.4733723076923084,-3.5865,-0.08103692307692309,-0.0031369230769230884,0.002004615384615292
0.042,1.0,8.952601538461538,-3.473298461538462,-3.5865,-0.08103538461538463,-0.003135384615384627,0.002016923076922982
0.043000000000000003,1.0,8.952675384615384,-3.473224615384616,-3.5865,-0.08103384615384616,-0.003133846153846166,0.002029230769230672
0.044,1.0,8.95274923076923,-3.4731507692307697,-3.5865,-0.08103230769230771,-0.0031323076923077046,0.002041538461538362
0.045,1.0,8.952823076923076,-3.4730769230769236,-3.5865,-0.08103076923076925,-0.0031307692307692434,0.002053846153846052
0.046,1.0,8.952896923076922,-3.4730030769230775,-3.5865,-0.08102923076923078,-0.003129230769230782,0.002066153846153742
0.047,1.0,8.952970769230769,-3.4729292307692314,-3.5865,-0.08102769230769233,-0.003127692307692321,0.0020784615384614323
0.048,1.0,8.953044615384615,-3.4728553846153853,-3.5865,-0.08102615384615386,-0.0031261538461538597,0.0020907692307691223
0.049,1.0,8.95311846153846,-3.4727815384615393,-3.5865,-0.0810246153846154,-0.0031246153846153984,0.002103076923076812
0.05,1.0,8.953192307692307,-3.472707692307693,-3.5865,-0.08102307692307693,-0.003123076923076937,0.0021153846153845026
0.051000000000000004,1.0,8.953266153846153,-3.4726338461538466,-3.5865,-0.08102153846153848,-0.003121538461538476,0.0021276923076921925
0.052000000000000005,1.0,8.953339999999999,-3.4725600000000005,-3.5865,-0.08102000000000002,-0.0031200000000000147,0.0021399999999998824
0.053,1.0,8.953413846153845,-3.4724861538461544,-3.5865,-0.08101846153846155,-0.0031184615384615534,0.0021523076923075724
0.054,1.0,8.953487692307691,-3.4724123076923084,-3.5865,-0.0810169230769231,-0.003116923076923092,0.0021646153846152623
0.055,1.0,8.953561538461537,-3.4723384615384623,-3.5865,-0.08101538461538463,-0.003115384615384631,0.0021769230769229527
0.056,1.0,8.953635384615383,-3.472264615384616,-3.5865,-0.08101384615384617,-0.0031138461538461697,0.0021892307692306426
0.057,1.0,8.95370923076923,-3.47219076923077,-3.5865,-0.08101230769230772,-0.0031123076923077085,0.0022015384615383326
0.058,1.0,8.953783076923076,-3.472116923076924,-3.5865,-0.08101076923076925,-0.0031107692307692472,0.002213846153846023
0.059000000000000004,1.0,8.953856923076922,-3.472043076923078,-3.5865,-0.08100923076923079,-0.003109230769230786,0.002226153846153713
0.06,1.0,8.953930769230768,-3.471969230769232,-3.5865,-0.08100769230769232,-0.0031076923076923248,0.002238461538461403
0.061,1.0,8.954004615384614,-3.4718953846153853,-3.5865,-0.08100615384615387,-0.0031061538461538635,0.0022507692307690928
0.062,1.0,8.95407846153846,-3.471821538461539,-3.5865,-0.08100461538461541,-0.003104615384615402,0.0022630769230767827
0.063,1.0,8.954152307692306,-3.471747692307693,-3.5865,-0.08100307692307694,-0.0031030769230769406,0.002275384615384473
0.064,1.0,8.954226153846152,-3.471673846153847,-3.5865,-0.08100153846153849,-0.0031015384615384793,0.002287692307692163
0.065,1.0,8.9543,-3.471600000000001,-3.5865,-0.08100000000000002,-0.003100000000000018,0.002299999999999853
0.066,1.0,8.95415230769231,-3.4717476923076904,-3.5868692307692265,-0.08100153846153844,-0.0030969230769231134,0.002307692307692216
0.067,1.0,8.954004615384617,-3.471895384615383,-3.5872384615384574,-0.08100307692307691,-0.00309384615384619,0.002315384615384524
0.068,1.0,8.953856923076925,-3.4720430769230752,-3.587607692307688,-0.08100461538461537,-0.003090769230769267,0.002323076923076832
0.069,1.0,8.953709230769233,-3.4721907692307674,-3.5879769230769187,-0.08100615384615382,-0.0030876923076923438,0.0023307692307691402
0.07,1.0,8.95356153846154,-3.4723384615384596,-3.5883461538461496,-0.0810076923076923,-0.003084615384615421,0.002338461538461448
0.07100000000000001,1.0,8.953413846153849,-3.4724861538461522,-3.5887153846153805,-0.08100923076923075,-0.0030815384615384975,0.002346153846153756
0.07200000000000001,1.0,8.953266153846155,-3.4726338461538444,-3.589084615384611,-0.08101076923076922,-0.003078461538461574,0.002353846153846064
0.073,1.0,8.953118461538462,-3.4727815384615366,-3.589453846153842,-0.08101230769230768,-0.0030753846153846512,0.0023615384615383716
0.074,1.0,8.95297076923077,-3.472929230769229,-3.589823076923073,-0.08101384615384614,-0.003072307692307728,0.00236923076923068
0.075,1.0,8.952823076923078,-3.4730769230769214,-3.5901923076923032,-0.0810153846153846,-0.003069230769230805,0.002376923076922988
0.076,1.0,8.952675384615386,-3.4732246153846136,-3.590561538461534,-0.08101692307692306,-0.0030661538461538816,0.002384615384615296
0.077,1.0,8.952527692307694,-3.4733723076923058,-3.590930769230765,-0.08101846153846153,-0.0030630769230769583,0.002392307692307604
0.078,1.0,8.952380000000002,-3.4735199999999984,-3.591299999999996,-0.08101999999999998,-0.0030600000000000353,0.0023999999999999118
0.079,1.0,8.95223230769231,-3.4736676923076906,-3.5916692307692264,-0.08102153846153845,-0.003056923076923112,0.0024076923076922197
0.08,1.0,8.952084615384617,-3.4738153846153828,-3.5920384615384573,-0.0810230769230769,-0.0030538461538461886,0.0024153846153845276
0.081,1.0,8.951936923076925,-3.4739630769230754,-3.592407692307688,-0.08102461538461538,-0.0030507692307692657,0.0024230769230768356
0.082,1.0,8.951789230769233,-3.4741107692307676,-3.592776923076919,-0.08102615384615383,-0.0030476923076923424,0.0024307692307691435
0.083,1.0,8.95164153846154,-3.4742584615384597,-3.5931461538461495,-0.0810276923076923,-0.0030446153846154195,0.0024384615384614515
0.084,1.0,8.951493846153847,-3.4744061538461524,-3.5935153846153804,-0.08102923076923076,-0.003041538461538496,0.0024461538461537594
0.085,1.0,8.951346153846155,-3.4745538461538445,-3.5938846153846113,-0.08103076923076921,-0.0030384615384615728,0.0024538461538460674
0.08600000000000001,1.0,8.951198461538462,-3.4747015384615367,-3.5942538461538422,-0.08103230769230768,-0.00303538461538465,0.0024615384615383753
0.08700000000000001,1.0,8.95105076923077,-3.474849230769229,-3.5946230769230727,-0.08103384615384614,-0.0030323076923077265,0.0024692307692306833
0.088,1.0,8.950903076923078,-3.4749969230769215,-3.5949923076923036,-0.0810353846153846,-0.0030292307692308036,0.002476923076922991
0.089,1.0,8.950755384615386,-3.4751446153846137,-3.5953615384615345,-0.08103692307692306,-0.00302615384615388,0.002484615384615299
0.09,1.0,8.950607692307694,-3.475292307692306,-3.595730769230765,-0.08103846153846153,-0.003023076923076957,0.002492307692307607
0.091,1.0,8.950460000000001,-3.4754399999999985,-3.596099999999996,-0.08103999999999999,-0.003020000000000034,0.002499999999999915
0.092,1.0,8.95031230769231,-3.4755876923076907,-3.5964692307692268,-0.08104153846153844,-0.0030169230769231106,0.002507692307692223
0.093,1.0,8.950164615384617,-3.475735384615383,-3.5968384615384577,-0.08104307692307691,-0.0030138461538461872,0.002515384615384531
0.094,1.0,8.950016923076925,-3.475883076923075,-3.597207692307688,-0.08104461538461537,-0.0030107692307692643,0.002523076923076839
0.095,1.0,8.949869230769233,-3.4760307692307677,-3.597576923076919,-0.08104615384615384,-0.003007692307692341,0.002530769230769147
0.096,1.0,8.94972153846154,-3.47617846153846,-3.59794615384615,-0.08104769230769229,-0.003004615384615418,0.0025384615384614548
0.097,1.0,8.949573846153847,-3.476326153846152,-3.598315384615381,-0.08104923076923076,-0.0030015384615384947,0.002546153846153763
0.098,1.0,8.949426153846154,-3.4764738461538447,-3.5986846153846113,-0.08105076923076922,-0.0029984615384615713,0.0025538461538460707
0.099,1.0,8.949278461538462,-3.476621538461537,-3.599053846153842,-0.08105230769230767,-0.0029953846153846484,0.002561538461538379
0.1,1.0,8.94913076923077,-3.476769230769229,-3.599423076923073,-0.08105384615384614,-0.002992307692307725,0.002569230769230687
0.101,1.0,8.948983076923078,-3.4769169230769212,-3.599792307692304,-0.0810553846153846,-0.0029892307692308017,0.002576923076922995
0.10200000000000001,1.0,8.948835384615386,-3.477064615384614,-3.6001615384615344,-0.08105692307692307,-0.002986153846153879,0.002584615384615303
0.10300000000000001,1.0,8.948687692307693,-3.477212307692306,-3.6005307692307653,-0.08105846153846152,-0.0029830769230769555,0.002592307692307611
0.10400000000000001,1.0,8.948540000000001,-3.4773599999999982,-3.600899999999996,-0.08106,-0.0029800000000000325,0.0025999999999999188
0.105,1.0,8.948392307692309,-3.477507692307691,-3.601269230769227,-0.08106153846153845,-0.002976923076923109,0.0026076923076922267
0.106,1.0,8.948244615384617,-3.477655384615383,-3.6016384615384576,-0.0810630769230769,-0.002973846153846186,0.0026153846153845347
0.107,1.0,8.948096923076925,-3.477803076923075,-3.6020076923076885,-0.08106461538461537,-0.002970769230769263,0.0026230769230768426
0.108,1.0,8.947949230769233,-3.4779507692307674,-3.6023769230769194,-0.08106615384615383,-0.0029676923076923396,0.0026307692307691506
0.109,1.0,8.947801538461539,-3.47809846153846,-3.60274615384615,-0.0810676923076923,-0.0029646153846154166,0.0026384615384614585
0.11,1.0,8.947653846153846,-3.478246153846152,-3.6031153846153807,-0.08106923076923075,-0.0029615384615384933,0.0026461538461537665
0.111,1.0,8.947506153846154,-3.4783938461538444,-3.6034846153846116,-0.08107076923076922,-0.00295846153846157,0.0026538461538460744
0.112,1.0,8.947358461538462,-3.478541538461537,-3.6038538461538425,-0.08107230769230768,-0.002955384615384647,0.0026615384615383824
0.113,1.0,8.94721076923077,-3.478689230769229,-3.604223076923073,-0.08107384615384615,-0.0029523076923077237,0.0026692307692306903
0.114,1.0,8.947063076923078,-3.4788369230769214,-3.604592307692304,-0.0810753846153846,-0.0029492307692308003,0.0026769230769229982
0.115,1.0,8.946915384615385,-3.4789846153846136,-3.6049615384615348,-0.08107692307692306,-0.0029461538461538774,0.002684615384615306
0.116,1.0,8.946767692307693,-3.479132307692306,-3.6053307692307657,-0.08107846153846153,-0.002943076923076954,0.002692307692307614
0.117,1.0,8.946620000000001,-3.4792799999999984,-3.605699999999996,-0.08107999999999999,-0.002940000000000031,0.002699999999999922
0.11800000000000001,1.0,8.946472307692309,-3.4794276923076906,-3.606069230769227,-0.08108153846153845,-0.0029369230769231078,0.00270769230769223
0.11900000000000001,1.0,8.946324615384617,-3.479575384615383,-3.606438461538458,-0.08108307692307691,-0.0029338461538461844,0.002715384615384538
0.12,1.0,8.946176923076925,-3.4797230769230754,-3.606807692307689,-0.08108461538461538,-0.0029307692307692615,0.002723076923076846
0.121,1.0,8.946029230769232,-3.4798707692307675,-3.6071769230769193,-0.08108615384615384,-0.002927692307692338,0.002730769230769154
0.122,1.0,8.945881538461538,-3.4800184615384597,-3.60754615384615,-0.08108769230769229,-0.0029246153846154152,0.002738461538461462
0.123,1.0,8.945733846153846,-3.4801661538461524,-3.607915384615381,-0.08108923076923076,-0.002921538461538492,0.0027461538461537698
0.124,1.0,8.945586153846154,-3.4803138461538445,-3.608284615384612,-0.08109076923076922,-0.0029184615384615685,0.0027538461538460777
0.125,1.0,8.945438461538462,-3.4804615384615367,-3.6086538461538424,-0.08109230769230769,-0.0029153846153846456,0.0027615384615383856
0.126,1.0,8.94529076923077,-3.4806092307692293,-3.6090230769230733,-0.08109384615384614,-0.0029123076923077223,0.002769230769230694
0.127,1.0,8.945143076923078,-3.4807569230769215,-3.6093923076923042,-0.08109538461538461,-0.002909230769230799,0.0027769230769230015
0.128,1.0,8.944995384615385,-3.4809046153846137,-3.6097615384615347,-0.08109692307692307,-0.002906153846153876,0.00278461538461531
0.129,1.0,8.944847692307693,-3.4810523076923063,-3.6101307692307656,-0.08109846153846152,-0.0029030769230769526,0.002792307692307618
0.13,1.0,8.944700000000001,-3.4811999999999985,-3.6104999999999965,-0.08109999999999999,-0.0029000000000000297,0.002799999999999926
0.131,1.0,8.94491818181818,-3.481127272727273,-3.610136363636367,-0.0811,-0.0029,0.0028
0.132,1.0,8.94513636363636,-3.481054545454546,-3.609772727272731,-0.0811,-0.0029,0.0028
0.133,1.0,8.945354545454542,-3.4809818181818186,-3.6094090909090943,-0.0811,-0.0029,0.0028
0.134,1.0,8.945572727272724,-3.4809090909090914,-3.609045454545458,-0.0811,-0.0029,0.0028
0.135,1.0,8.945790909090906,-3.480836363636364,-3.6086818181818217,-0.0811,-0.0029,0.0028
0.136,1.0,8.946009090909088,-3.480763636363637,-3.6083181818181855,-0.0811,-0.0029,0.0028
0.137,1.0,8.94622727272727,-3.4806909090909097,-3.607954545454549,-0.0811,-0.0029,0.0028
0.138,1.0,8.94644545454545,-3.4806181818181825,-3.607590909090913,-0.0811,-0.0029,0.0028
0.139,1.0,8.946663636363633,-3.4805454545454553,-3.6072272727272763,-0.0811,-0.0029,0.0028
0.14,1.0,8.946881818181815,-3.480472727272728,-3.60686363636364,-0.0811,-0.0029,0.0028
0.14100000000000001,1.0,8.947099999999997,-3.4804000000000004,-3.6065000000000036,-0.0811,-0.0029,0.0028
0.14200000000000002,1.0,8.94731818181818,-3.480327272727273,-3.6061363636363675,-0.0811,-0.0029,0.0028
0.14300000000000002,1.0,8.947536363636361,-3.480254545454546,-3.605772727272731,-0.0811,-0.0029,0.0028
0.14400000000000002,1.0,8.947754545454542,-3.4801818181818187,-3.605409090909095,-0.0811,-0.0029,0.0028
0.145,1.0,8.947972727272724,-3.4801090909090915,-3.605045454545458,-0.0811,-0.0029,0.0028
0.146,1.0,8.948190909090906,-3.4800363636363643,-3.604681818181822,-0.0811,-0.0029,0.0028
0.147,1.0,8.948409090909088,-3.479963636363637,-3.6043181818181855,-0.0811,-0.0029,0.0028
0.148,1.0,8.94862727272727,-3.47989090909091,-3.6039545454545494,-0.0811,-0.0029,0.0028
0.149,1.0,8.948845454545452,-3.4798181818181826,-3.603590909090913,-0.0811,-0.0029,0.0028
0.15,1.0,8.949063636363633,-3.4797454545454554,-3.6032272727272767,-0.0811,-0.0029,0.0028
0.151,1.0,8.949281818181815,-3.4796727272727277,-3.60286363636364,-0.0811,-0.0029,0.0028
0.152,1.0,8.949499999999997,-3.4796000000000005,-3.602500000000004,-0.0811,-0.0029,0.0028
0.153,1.0,8.949718181818179,-3.4795272727272732,-3.6021363636363675,-0.0811,-0.0029,0.0028
0.154,1.0,8.949936363636361,-3.479454545454546,-3.6017727272727313,-0.0811,-0.0029,0.0028
0.155,1.0,8.950154545454543,-3.479381818181819,-3.601409090909095,-0.0811,-0.0029,0.0028
0.156,1.0,8.950372727272724,-3.4793090909090916,-3.6010454545454587,-0.0811,-0.0029,0.0028
0.157,1.0,8.950590909090906,-3.4792363636363643,-3.600681818181822,-0.0811,-0.0029,0.0028
0.158,1.0,8.950809090909088,-3.479163636363637,-3.600318181818186,-0.0811,-0.0029,0.0028
0.159,1.0,8.95102727272727,-3.47909090909091,-3.5999545454545494,-0.0811,-0.0029,0.0028
0.16,1.0,8.951245454545452,-3.4790181818181827,-3.599590909090913,-0.0811,-0.0029,0.0028
0.161,1.0,8.951463636363634,-3.478945454545455,-3.5992272727272767,-0.0811,-0.0029,0.0028
0.162,1.0,8.951681818181815,-3.478872727272728,-3.59886363636364,-0.0811,-0.0029,0.0028
0.163,1.0,8.951899999999997,-3.4788000000000006,-3.598500000000004,-0.0811,-0.0029,0.0028
0.164,1.0,8.952118181818179,-3.4787272727272733,-3.5981363636363675,-0.0811,-0.0029,0.0028
0.165,1.0,8.95233636363636,-3.478654545454546,-3.5977727272727313,-0.0811,-0.0029,0.0028
0.166,1.0,8.952554545454543,-3.478581818181819,-3.5974090909090948,-0.0811,-0.0029,0.0028
0.167,1.0,8.952772727272723,-3.4785090909090917,-3.5970454545454587,-0.0811,-0.0029,0.0028
0.168,1.0,8.952990909090905,-3.4784363636363644,-3.596681818181822,-0.0811,-0.0029,0.0028
0.169,1.0,8.953209090909088,-3.478363636363637,-3.596318181818186,-0.0811,-0.0029,0.0028
0.17,1.0,8.95342727272727,-3.47829090909091,-3.5959545454545494,-0.0811,-0.0029,0.0028
0.171,1.0,8.953645454545452,-3.4782181818181823,-3.5955909090909133,-0.0811,-0.0029,0.0028
0.17200000000000001,1.0,8.953863636363634,-3.478145454545455,-3.5952272727272767,-0.0811,-0.0029,0.0028
0.17300000000000001,1.0,8.954081818181814,-3.478072727272728,-3.5948636363636406,-0.0811,-0.0029,0.0028
0.17400000000000002,1.0,8.954299999999996,-3.4780000000000006,-3.594500000000004,-0.0811,-0.0029,0.0028
0.17500000000000002,1.0,8.954518181818178,-3.4779272727272734,-3.594136363636368,-0.0811,-0.0029,0.0028
0.176,1.0,8.95473636363636,-3.477854545454546,-3.5937727272727313,-0.0811,-0.0029,0.0028
0.177,1.0,8.954954545454543,-3.477781818181819,-3.593409090909095,-0.0811,-0.0029,0.0028
0.178,1.0,8.955172727272725,-3.4777090909090917,-3.5930454545454587,-0.0811,-0.0029,0.0028
0.179,1.0,8.955390909090905,-3.4776363636363645,-3.5926818181818225,-0.0811,-0.0029,0.0028
0.18,1.0,8.955609090909087,-3.4775636363636373,-3.592318181818186,-0.0811,-0.0029,0.0028
0.181,1.0,8.95582727272727,-3.4774909090909096,-3.59195454545455,-0.0811,-0.0029,0.0028
0.182,1.0,8.956045454545452,-3.4774181818181824,-3.5915909090909133,-0.0811,-0.0029,0.0028
0.183,1.0,8.956263636363634,-3.477345454545455,-3.591227272727277,-0.0811,-0.0029,0.0028
0.184,1.0,8.956481818181816,-3.477272727272728,-3.5908636363636406,-0.0811,-0.0029,0.0028
0.185,1.0,8.956699999999996,-3.4772000000000007,-3.5905000000000045,-0.0811,-0.0029,0.0028
0.186,1.0,8.956918181818178,-3.4771272727272735,-3.590136363636368,-0.0811,-0.0029,0.0028
0.187,1.0,8.95713636363636,-3.4770545454545463,-3.589772727272732,-0.0811,-0.0029,0.0028
0.188,1.0,8.957354545454542,-3.476981818181819,-3.589409090909095,-0.0811,-0.0029,0.0028
0.189,1.0,8.957572727272725,-3.476909090909092,-3.589045454545459,-0.0811,-0.0029,0.0028
0.19,1.0,8.957790909090907,-3.4768363636363646,-3.5886818181818225,-0.0811,-0.0029,0.0028
0.191,1.0,8.958009090909087,-3.476763636363637,-3.5883181818181864,-0.0811,-0.0029,0.0028
0.192,1.0,8.95822727272727,-3.4766909090909097,-3.58795454545455,-0.0811,-0.0029,0.0028
0.193,1.0,8.958445454545451,-3.4766181818181825,-3.5875909090909133,-0.0811,-0.0029,0.0028
0.194,1.0,8.958663636363633,-3.4765454545454553,-3.587227272727277,-0.0811,-0.0029,0.0028
0.195,1.0,8.958881818181816,-3.476472727272728,-3.5868636363636406,-0.0811,-0.0029,0.0028
0.196,1.0,8.959099999999998,-3.476400000000001,-3.5865000000000045,-0.0811,-0.0029,0.0028
0.197,1.0,8.958878461538463,-3.4766199999999974,-3.586426153846155,-0.08111076923076911,-0.002893846153846228,0.0028199999999997576
0.198,1.0,8.958656923076925,-3.4768399999999975,-3.5863523076923087,-0.08112153846153834,-0.002887692307692382,0.002839999999999758
0.199,1.0,8.958435384615386,-3.477059999999997,-3.5862784615384626,-0.08113230769230757,-0.0028815384615385356,0.002859999999999759
0.2,1.0,8.958213846153848,-3.4772799999999973,-3.586204615384616,-0.0811430769230768,-0.0028753846153846893,0.00287999999999976
0.201,1.0,8.95799230769231,-3.4774999999999974,-3.58613076923077,-0.08115384615384603,-0.0028692307692308426,0.0028999999999997604
0.202,1.0,8.957770769230772,-3.4777199999999975,-3.586056923076924,-0.08116461538461527,-0.0028630769230769963,0.0029199999999997613
0.203,1.0,8.957549230769233,-3.477939999999997,-3.585983076923078,-0.0811753846153845,-0.00285692307692315,0.002939999999999762
0.20400000000000001,1.0,8.957327692307695,-3.4781599999999973,-3.5859092307692317,-0.08118615384615373,-0.002850769230769304,0.0029599999999997627
0.20500000000000002,1.0,8.957106153846157,-3.4783799999999974,-3.5858353846153856,-0.08119692307692296,-0.002844615384615457,0.0029799999999997632
0.20600000000000002,1.0,8.956884615384617,-3.4785999999999975,-3.5857615384615396,-0.08120769230769219,-0.002838461538461611,0.002999999999999764
0.20700000000000002,1.0,8.956663076923078,-3.478819999999997,-3.585687692307693,-0.08121846153846142,-0.0028323076923077646,0.0030199999999997646
0.20800000000000002,1.0,8.95644153846154,-3.4790399999999972,-3.585613846153847,-0.08122923076923065,-0.0028261538461539183,0.0030399999999997655
0.209,1.0,8.956220000000002,-3.4792599999999974,-3.585540000000001,-0.08123999999999988,-0.002820000000000072,0.0030599999999997656
0.21,1.0,8.955998461538464,-3.4794799999999975,-3.5854661538461547,-0.08125076923076911,-0.0028138461538462257,0.0030799999999997665
0.211,1.0,8.955776923076925,-3.4796999999999976,-3.5853923076923087,-0.08126153846153834,-0.002807692307692379,0.003099999999999767
0.212,1.0,8.955555384615387,-3.4799199999999972,-3.5853184615384626,-0.08127230769230757,-0.0028015384615385328,0.003119999999999768
0.213,1.0,8.955333846153849,-3.4801399999999973,-3.5852446153846165,-0.0812830769230768,-0.0027953846153846865,0.0031399999999997684
0.214,1.0,8.95511230769231,-3.4803599999999975,-3.58517076923077,-0.08129384615384604,-0.0027892307692308402,0.0031599999999997693
0.215,1.0,8.95489076923077,-3.4805799999999976,-3.585096923076924,-0.08130461538461527,-0.0027830769230769935,0.00317999999999977
0.216,1.0,8.954669230769232,-3.4807999999999972,-3.5850230769230778,-0.0813153846153845,-0.0027769230769231473,0.0031999999999997707
0.217,1.0,8.954447692307694,-3.4810199999999973,-3.5849492307692317,-0.08132615384615373,-0.002770769230769301,0.0032199999999997717
0.218,1.0,8.954226153846156,-3.4812399999999974,-3.5848753846153856,-0.08133692307692296,-0.0027646153846154547,0.003239999999999772
0.219,1.0,8.954004615384617,-3.4814599999999976,-3.5848015384615395,-0.08134769230769219,-0.0027584615384616084,0.003259999999999773
0.22,1.0,8.953783076923079,-3.481679999999997,-3.5847276923076934,-0.08135846153846142,-0.0027523076923077617,0.0032799999999997735
0.221,1.0,8.95356153846154,-3.4818999999999973,-3.584653846153847,-0.08136923076923065,-0.0027461538461539155,0.0032999999999997745
0.222,1.0,8.953340000000003,-3.4821199999999974,-3.5845800000000008,-0.08137999999999988,-0.002740000000000069,0.003319999999999775
0.223,1.0,8.953118461538462,-3.4823399999999975,-3.5845061538461547,-0.08139076923076911,-0.002733846153846223,0.003339999999999776
0.224,1.0,8.952896923076924,-3.4825599999999977,-3.5844323076923086,-0.08140153846153834,-0.0027276923076923762,0.0033599999999997764
0.225,1.0,8.952675384615386,-3.4827799999999973,-3.5843584615384625,-0.08141230769230758,-0.00272153846153853,0.0033799999999997773
0.226,1.0,8.952453846153848,-3.4829999999999974,-3.5842846153846164,-0.0814230769230768,-0.0027153846153846837,0.003399999999999778
0.227,1.0,8.95223230769231,-3.4832199999999975,-3.5842107692307703,-0.08143384615384604,-0.0027092307692308374,0.0034199999999997787
0.228,1.0,8.952010769230771,-3.4834399999999976,-3.5841369230769238,-0.08144461538461527,-0.0027030769230769907,0.003439999999999779
0.229,1.0,8.951789230769233,-3.4836599999999973,-3.5840630769230777,-0.0814553846153845,-0.0026969230769231444,0.00345999999999978
0.23,1.0,8.951567692307695,-3.4838799999999974,-3.5839892307692316,-0.08146615384615373,-0.002690769230769298,0.003479999999999781
0.231,1.0,8.951346153846156,-3.4840999999999975,-3.5839153846153855,-0.08147692307692296,-0.002684615384615452,0.0034999999999997815
0.232,1.0,8.951124615384616,-3.4843199999999976,-3.5838415384615394,-0.08148769230769219,-0.002678461538461605,0.0035199999999997824
0.233,1.0,8.950903076923078,-3.4845399999999978,-3.5837676923076933,-0.08149846153846142,-0.002672307692307759,0.003539999999999783
0.234,1.0,8.95068153846154,-3.4847599999999974,-3.5836938461538472,-0.08150923076923065,-0.0026661538461539127,0.003559999999999784
0.23500000000000001,1.0,8.950460000000001,-3.4849799999999975,-3.5836200000000007,-0.08151999999999988,-0.0026600000000000664,0.0035799999999997843
0.23600000000000002,1.0,8.950238461538463,-3.4851999999999976,-3.5835461538461546,-0.08153076923076912,-0.00265384615384622,0.0035999999999997852
0.23700000000000002,1.0,8.950016923076925,-3.4854199999999977,-3.5834723076923085,-0.08154153846153835,-0.0026476923076923734,0.0036199999999997857
0.23800000000000002,1.0,8.949795384615387,-3.4856399999999974,-3.5833984615384624,-0.08155230769230758,-0.002641538461538527,0.0036399999999997866
0.23900000000000002,1.0,8.949573846153848,-3.4858599999999975,-3.5833246153846163,-0.08156307692307681,-0.002635384615384681,0.0036599999999997876
0.24,1.0,8.94935230769231,-3.4860799999999976,-3.5832507692307702,-0.08157384615384604,-0.0026292307692308346,0.0036799999999997876
0.241,1.0,8.94913076923077,-3.4862999999999977,-3.583176923076924,-0.08158461538461527,-0.0026230769230769883,0.003699999999999788
0.242,1.0,8.948909230769232,-3.4865199999999974,-3.5831030769230776,-0.0815953846153845,-0.002616923076923142,0.003719999999999789
0.243,1.0,8.948687692307693,-3.4867399999999975,-3.5830292307692315,-0.08160615384615373,-0.0026107692307692954,0.0037399999999997895
0.244,1.0,8.948466153846155,-3.4869599999999976,-3.5829553846153854,-0.08161692307692296,-0.002604615384615449,0.0037599999999997904
0.245,1.0,8.948244615384617,-3.4871799999999977,-3.5828815384615393,-0.08162769230769219,-0.002598461538461603,0.0037799999999997913
0.246,1.0,8.948023076923079,-3.487399999999998,-3.5828076923076932,-0.08163846153846142,-0.0025923076923077566,0.003799999999999792
0.247,1.0,8.94780153846154,-3.4876199999999975,-3.582733846153847,-0.08164923076923065,-0.00258615384615391,0.0038199999999997923
0.248,1.0,8.947580000000002,-3.4878399999999976,-3.582660000000001,-0.08165999999999989,-0.0025800000000000636,0.0038399999999997932
0.249,1.0,8.947358461538464,-3.4880599999999977,-3.5825861538461545,-0.08167076923076912,-0.0025738461538462173,0.003859999999999794
0.25,1.0,8.947136923076924,-3.488279999999998,-3.5825123076923084,-0.08168153846153835,-0.002567692307692371,0.0038799999999997946
0.251,1.0,8.946915384615385,-3.4884999999999975,-3.5824384615384623,-0.08169230769230758,-0.0025615384615385248,0.0038999999999997956
0.252,1.0,8.946693846153847,-3.4887199999999976,-3.5823646153846163,-0.08170307692307681,-0.002555384615384678,0.003919999999999796
0.253,1.0,8.946472307692309,-3.4889399999999977,-3.58229076923077,-0.08171384615384604,-0.002549230769230832,0.003939999999999797
0.254,1.0,8.94625076923077,-3.489159999999998,-3.582216923076924,-0.08172461538461527,-0.0025430769230769855,0.003959999999999798
0.255,1.0,8.946029230769232,-3.4893799999999975,-3.582143076923078,-0.0817353846153845,-0.0025369230769231393,0.003979999999999798
0.256,1.0,8.945807692307694,-3.4895999999999976,-3.5820692307692314,-0.08174615384615373,-0.0025307692307692926,0.003999999999999799
0.257,1.0,8.945586153846156,-3.4898199999999977,-3.5819953846153854,-0.08175692307692296,-0.0025246153846154463,0.0040199999999998
0.258,1.0,8.945364615384618,-3.490039999999998,-3.5819215384615393,-0.0817676923076922,-0.0025184615384616,0.004039999999999801
0.259,1.0,8.945143076923078,-3.490259999999998,-3.581847692307693,-0.08177846153846142,-0.0025123076923077537,0.004059999999999802
0.26,1.0,8.94492153846154,-3.4904799999999976,-3.581773846153847,-0.08178923076923066,-0.002506153846153907,0.004079999999999802
0.261,1.0,8.944700000000001,-3.4906999999999977,-3.581700000000001,-0.08179999999999989,-0.0025000000000000608,0.004099999999999803
0.262,1.0,8.9447,-3.4906287878787885,-3.5819181818181796,-0.08180151515151514,-0.002503030303030273,0.0040848484848486355
0.263,1.0,8.9447,-3.490557575757576,-3.5821363636363617,-0.08180303030303028,-0.002506060606060576,0.004069696969697121
0.264,1.0,8.9447,-3.4904863636363643,-3.5823545454545433,-0.08180454545454544,-0.002509090909090879,0.0040545454545456066
0.265,1.0,8.9447,-3.490415151515152,-3.582572727272725,-0.08180606060606059,-0.0025121212121211817,0.004039393939394092
0.266,1.0,8.9447,-3.49034393939394,-3.582790909090907,-0.08180757575757575,-0.0025151515151514846,0.004024242424242577
0.267,1.0,8.9447,-3.490272727272728,-3.583009090909089,-0.08180909090909089,-0.0025181818181817875,0.004009090909091063
0.268,1.0,8.9447,-3.490201515151516,-3.5832272727272705,-0.08181060606060604,-0.0025212121212120904,0.003993939393939548
0.269,1.0,8.9447,-3.4901303030303037,-3.5834454545454526,-0.0818121212121212,-0.0025242424242423933,0.003978787878788033
0.27,1.0,8.9447,-3.4900590909090914,-3.5836636363636343,-0.08181363636363635,-0.002527272727272696,0.003963636363636519
0.271,1.0,8.9447,-3.4899878787878795,-3.583881818181816,-0.0818151515151515,-0.0025303030303029995,0.003948484848485004
0.272,1.0,8.9447,-3.4899166666666672,-3.5840999999999976,-0.08181666666666665,-0.0025333333333333024,0.003933333333333489
0.273,1.0,8.9447,-3.4898454545454554,-3.5843181818181797,-0.0818181818181818,-0.0025363636363636053,0.003918181818181975
0.274,1.0,8.9447,-3.489774242424243,-3.5845363636363614,-0.08181969696969696,-0.002539393939393908,0.00390303030303046
0.275,1.0,8.9447,-3.489703030303031,-3.584754545454543,-0.0818212121212121,-0.002542424242424211,0.0038878787878789457
0.276,1.0,8.9447,-3.489631818181819,-3.584972727272725,-0.08182272727272726,-0.002545454545454514,0.003872727272727431
0.277,1.0,8.9447,-3.4895606060606066,-3.585190909090907,-0.08182424242424241,-0.002548484848484817,0.0038575757575759163
0.278,1.0,8.9447,-3.4894893939393947,-3.5854090909090885,-0.08182575757575755,-0.0025515151515151198,0.003842424242424402
0.279,1.0,8.9447,-3.4894181818181824,-3.5856272727272707,-0.0818272727272727,-0.0025545454545454226,0.0038272727272728874
0.28,1.0,8.9447,-3.4893469696969706,-3.5858454545454523,-0.08182878787878786,-0.0025575757575757255,0.0038121212121213725
0.281,1.0,8.9447,-3.4892757575757583,-3.586063636363634,-0.08183030303030302,-0.0025606060606060284,0.003796969696969858
0.28200000000000003,1.0,8.9447,-3.4892045454545464,-3.5862818181818157,-0.08183181818181816,-0.0025636363636363313,0.0037818181818183435
0.28300000000000003,1.0,8.9447,-3.489133333333334,-3.586499999999998,-0.08183333333333331,-0.0025666666666666342,0.003766666666666829
0.28400000000000003,1.0,8.9447,-3.489062121212122,-3.5867181818181795,-0.08183484848484847,-0.002569696969696937,0.003751515151515314
0.28500000000000003,1.0,8.9447,-3.48899090909091,-3.586936363636361,-0.08183636363636362,-0.00257272727272724,0.0037363636363637997
0.28600000000000003,1.0,8.9447,-3.4889196969696976,-3.5871545454545433,-0.08183787878787877,-0.002575757575757543,0.0037212121212122852
0.28700000000000003,1.0,8.9447,-3.4888484848484858,-3.587372727272725,-0.08183939393939392,-0.0025787878787878462,0.0037060606060607703
0.28800000000000003,1.0,8.9447,-3.4887772727272734,-3.5875909090909066,-0.08184090909090908,-0.002581818181818149,0.003690909090909256
0.289,1.0,8.9447,-3.4887060606060616,-3.5878090909090887,-0.08184242424242423,-0.0025848484848484516,0.0036757575757577422
0.29,1.0,8.9447,-3.4886348484848493,-3.5880272727272704,-0.08184393939393937,-0.0025878787878787545,0.0036606060606062278
0.291,1.0,8.9447,-3.488563636363637,-3.588245454545452,-0.08184545454545453,-0.0025909090909090574,0.003645454545454713
0.292,1.0,8.9447,-3.488492424242425,-3.5884636363636337,-0.08184696969696968,-0.0025939393939393603,0.0036303030303031984
0.293,1.0,8.9447,-3.488421212121213,-3.588681818181816,-0.08184848484848484,-0.002596969696969663,0.003615151515151684
0.294,1.0,8.9447,-3.488350000000001,-3.5888999999999975,-0.08184999999999998,-0.0025999999999999665,0.003600000000000169
0.295,1.0,8.9447,-3.4882787878787886,-3.589118181818179,-0.08185151515151513,-0.0026030303030302694,0.0035848484848486546
0.296,1.0,8.9447,-3.488207575757577,-3.5893363636363613,-0.08185303030303029,-0.0026060606060605723,0.00356969696969714
0.297,1.0,8.9447,-3.4881363636363645,-3.589554545454543,-0.08185454545454543,-0.002609090909090875,0.003554545454545625
0.298,1.0,8.9447,-3.4880651515151526,-3.5897727272727247,-0.08185606060606058,-0.002612121212121178,0.0035393939393941107
0.299,1.0,8.9447,-3.4879939393939403,-3.589990909090907,-0.08185757575757574,-0.002615151515151481,0.0035242424242425963
0.3,1.0,8.9447,-3.487922727272728,-3.5902090909090885,-0.0818590909090909,-0.002618181818181784,0.0035090909090910814
0.301,1.0,8.9447,-3.487851515151516,-3.59042727272727,-0.08186060606060604,-0.0026212121212120867,0.003493939393939567
0.302,1.0,8.9447,-3.487780303030304,-3.590645454545452,-0.08186212121212119,-0.0026242424242423896,0.0034787878787880524
0.303,1.0,8.9447,-3.487709090909092,-3.590863636363634,-0.08186363636363635,-0.0026272727272726925,0.0034636363636365375
0.304,1.0,8.9447,-3.4876378787878797,-3.5910818181818156,-0.0818651515151515,-0.0026303030303029954,0.003448484848485023
0.305,1.0,8.9447,-3.487566666666668,-3.5912999999999973,-0.08186666666666664,-0.0026333333333332983,0.0034333333333335086
0.306,1.0,8.9447,-3.4874954545454555,-3.5915181818181794,-0.0818681818181818,-0.002636363636363601,0.003418181818181994
0.307,1.0,8.9447,-3.487424242424243,-3.591736363636361,-0.08186969696969695,-0.002639393939393904,0.0034030303030304796
0.308,1.0,8.9447,-3.4873530303030313,-3.5919545454545427,-0.08187121212121211,-0.002642424242424207,0.0033878787878789647
0.309,1.0,8.9447,-3.487281818181819,-3.592172727272725,-0.08187272727272725,-0.00264545454545451,0.0033727272727274503
0.31,1.0,8.9447,-3.487210606060607,-3.5923909090909065,-0.0818742424242424,-0.0026484848484848132,0.003357575757575936
0.311,1.0,8.9447,-3.487139393939395,-3.592609090909088,-0.08187575757575756,-0.0026515151515151157,0.003342424242424421
0.312,1.0,8.9447,-3.487068181818183,-3.59282727272727,-0.08187727272727272,-0.002654545454545419,0.0033272727272729064
0.313,1.0,8.9447,-3.4869969696969707,-3.593045454545452,-0.08187878787878786,-0.002657575757575722,0.003312121212121392
0.314,1.0,8.9447,-3.4869257575757584,-3.5932636363636337,-0.08188030303030301,-0.002660606060606025,0.003296969696969877
0.315,1.0,8.9447,-3.4868545454545465,-3.5934818181818153,-0.08188181818181817,-0.0026636363636363277,0.0032818181818183626
0.316,1.0,8.9447,-3.4867833333333342,-3.5936999999999975,-0.08188333333333332,-0.0026666666666666306,0.003266666666666848
0.317,1.0,8.9447,-3.4867121212121224,-3.593918181818179,-0.08188484848484846,-0.0026696969696969335,0.0032515151515153332
0.318,1.0,8.9447,-3.48664090909091,-3.594136363636361,-0.08188636363636362,-0.0026727272727272364,0.0032363636363638188
0.319,1.0,8.9447,-3.486569696969698,-3.594354545454543,-0.08188787878787877,-0.0026757575757575393,0.0032212121212123043
0.32,1.0,8.9447,-3.486498484848486,-3.5945727272727246,-0.08188939393939391,-0.002678787878787842,0.0032060606060607894
0.321,1.0,8.9447,-3.4864272727272736,-3.5947909090909063,-0.08189090909090907,-0.002681818181818145,0.003190909090909275
0.322,1.0,8.9447,-3.4863560606060617,-3.595009090909088,-0.08189242424242422,-0.002684848484848448,0.0031757575757577605
0.323,1.0,8.9447,-3.4862848484848494,-3.59522727272727,-0.08189393939393938,-0.002687878787878751,0.0031606060606062455
0.324,1.0,8.9447,-3.4862136363636376,-3.5954454545454517,-0.08189545454545452,-0.0026909090909090537,0.003145454545454731
0.325,1.0,8.9447,-3.4861424242424253,-3.5956636363636334,-0.08189696969696968,-0.0026939393939393566,0.0031303030303032166
0.326,1.0,8.9447,-3.4860712121212134,-3.5958818181818155,-0.08189848484848483,-0.0026969696969696595,0.0031151515151517017
0.327,1.0,8.9447,-3.486000000000001,-3.596099999999997,-0.08189999999999999,-0.002699999999999963,0.0031000000000001877
0.328,1.0,8.944553846153847,-3.486,-3.5961,-0.08189230769230779,-0.0026938461538462298,0.0030907692307693448
0.329,1.0,8.944407692307694,-3.486,-3.5961,-0.08188461538461549,-0.0026876923076923835,0.003081538461538575
0.33,1.0,8.94426153846154,-3.486,-3.5961,-0.08187692307692317,-0.0026815384615385372,0.0030723076923078055
0.331,1.0,8.944115384615385,-3.486,-3.5961,-0.08186923076923086,-0.002675384615384691,0.003063076923077036
0.332,1.0,8.943969230769232,-3.486,-3.5961,-0.08186153846153855,-0.0026692307692308443,0.0030538461538462663
0.333,1.0,8.943823076923078,-3.486,-3.5961,-0.08185384615384625,-0.002663076923076998,0.0030446153846154967
0.334,1.0,8.943676923076923,-3.486,-3.5961,-0.08184615384615394,-0.0026569230769231517,0.003035384615384727
0.335,1.0,8.94353076923077,-3.486,-3.5961,-0.08183846153846164,-0.0026507692307693054,0.003026153846153958
0.336,1.0,8.943384615384616,-3.486,-3.5961,-0.08183076923076932,-0.0026446153846154587,0.0030169230769231882
0.337,1.0,8.943238461538463,-3.486,-3.5961,-0.08182307692307701,-0.0026384615384616125,0.0030076923076924186
0.338,1.0,8.943092307692309,-3.486,-3.5961,-0.0818153846153847,-0.002632307692307766,0.002998461538461649
0.339,1.0,8.942946153846155,-3.486,-3.5961,-0.0818076923076924,-0.00262615384615392,0.0029892307692308794
0.34,1.0,8.942800000000002,-3.486,-3.5961,-0.0818000000000001,-0.0026200000000000732,0.0029800000000001097
0.341,1.0,8.942653846153847,-3.486,-3.5961,-0.08179230769230779,-0.002613846153846227,0.00297076923076934
0.342,1.0,8.942507692307693,-3.486,-3.5961,-0.08178461538461547,-0.0026076923076923807,0.002961538461538571
0.343,1.0,8.94236153846154,-3.486,-3.5961,-0.08177692307692316,-0.0026015384615385344,0.0029523076923078013
0.34400000000000003,1.0,8.942215384615386,-3.486,-3.5961,-0.08176923076923086,-0.0025953846153846877,0.0029430769230770317
0.34500000000000003,1.0,8.942069230769231,-3.486,-3.5961,-0.08176153846153855,-0.0025892307692308414,0.002933846153846262
0.34600000000000003,1.0,8.941923076923079,-3.486,-3.5961,-0.08175384615384625,-0.002583076923076995,0.0029246153846154924
0.34700000000000003,1.0,8.941776923076924,-3.486,-3.5961,-0.08174615384615394,-0.002576923076923149,0.002915384615384723
0.34800000000000003,1.0,8.94163076923077,-3.486,-3.5961,-0.08173846153846163,-0.0025707692307693026,0.002906153846153953
0.34900000000000003,1.0,8.941484615384617,-3.486,-3.5961,-0.08173076923076932,-0.002564615384615456,0.002896923076923184
0.35000000000000003,1.0,8.941338461538463,-3.486,-3.5961,-0.08172307692307701,-0.0025584615384616097,0.0028876923076924144
0.35100000000000003,1.0,8.941192307692308,-3.486,-3.5961,-0.0817153846153847,-0.0025523076923077634,0.0028784615384616448
0.352,1.0,8.941046153846155,-3.486,-3.5961,-0.0817076923076924,-0.002546153846153917,0.0028692307692308756
0.353,1.0,8.940900000000001,-3.486,-3.5961,-0.08170000000000009,-0.002540000000000071,0.002860000000000106
0.354,1.0,8.940753846153846,-3.486,-3.5961,-0.08169230769230779,-0.0025338461538462246,0.0028507692307693368
0.355,1.0,8.940607692307694,-3.486,-3.5961,-0.08168461538461547,-0.0025276923076923783,0.002841538461538567
0.356,1.0,8.94046153846154,-3.486,-3.5961,-0.08167692307692316,-0.0025215384615385316,0.0028323076923077975
0.357,1.0,8.940315384615387,-3.486,-3.5961,-0.08166923076923086,-0.0025153846153846853,0.002823076923077028
0.358,1.0,8.940169230769232,-3.486,-3.5961,-0.08166153846153855,-0.002509230769230839,0.0028138461538462583
0.359,1.0,8.940023076923078,-3.486,-3.5961,-0.08165384615384624,-0.002503076923076993,0.0028046153846154886
0.36,1.0,8.939876923076925,-3.486,-3.5961,-0.08164615384615394,-0.002496923076923146,0.0027953846153847195
0.361,1.0,8.93973076923077,-3.486,-3.5961,-0.08163846153846163,-0.0024907692307693,0.00278615384615395
0.362,1.0,8.939584615384616,-3.486,-3.5961,-0.08163076923076931,-0.0024846153846154535,0.0027769230769231802
0.363,1.0,8.939438461538463,-3.486,-3.5961,-0.081623076923077,-0.0024784615384616073,0.0027676923076924106
0.364,1.0,8.939292307692309,-3.486,-3.5961,-0.0816153846153847,-0.0024723076923077606,0.002758461538461641
0.365,1.0,8.939146153846155,-3.486,-3.5961,-0.0816076923076924,-0.0024661538461539143,0.0027492307692308714
0.366,1.0,8.939000000000002,-3.486,-3.5961,-0.08160000000000009,-0.002460000000000068,0.0027400000000001017
0.367,1.0,8.938853846153847,-3.486,-3.5961,-0.08159230769230778,-0.0024538461538462218,0.0027307692307693325
0.368,1.0,8.938707692307693,-3.486,-3.5961,-0.08158461538461546,-0.002447692307692375,0.002721538461538563
0.369,1.0,8.93856153846154,-3.486,-3.5961,-0.08157692307692316,-0.002441538461538529,0.0027123076923077933
0.37,1.0,8.938415384615386,-3.486,-3.5961,-0.08156923076923085,-0.0024353846153846825,0.0027030769230770237
0.371,1.0,8.938269230769231,-3.486,-3.5961,-0.08156153846153855,-0.0024292307692308363,0.002693846153846254
0.372,1.0,8.938123076923079,-3.486,-3.5961,-0.08155384615384624,-0.0024230769230769895,0.0026846153846154844
0.373,1.0,8.937976923076924,-3.486,-3.5961,-0.08154615384615393,-0.0024169230769231433,0.002675384615384715
0.374,1.0,8.937830769230771,-3.486,-3.5961,-0.08153846153846162,-0.002410769230769297,0.0026661538461539456
0.375,1.0,8.937684615384617,-3.486,-3.5961,-0.08153076923076931,-0.0024046153846154507,0.002656923076923176
0.376,1.0,8.937538461538463,-3.486,-3.5961,-0.081523076923077,-0.002398461538461604,0.0026476923076924064
0.377,1.0,8.93739230769231,-3.486,-3.5961,-0.0815153846153847,-0.0023923076923077578,0.0026384615384616368
0.378,1.0,8.937246153846155,-3.486,-3.5961,-0.08150769230769239,-0.0023861538461539115,0.002629230769230867
0.379,1.0,8.937100000000001,-3.486,-3.5961,-0.08150000000000009,-0.0023800000000000652,0.0026200000000000975
0.38,1.0,8.936953846153848,-3.486,-3.5961,-0.08149230769230778,-0.0023738461538462185,0.002610769230769328
0.381,1.0,8.936807692307694,-3.486,-3.5961,-0.08148461538461546,-0.0023676923076923722,0.0026015384615385587
0.382,1.0,8.93666153846154,-3.486,-3.5961,-0.08147692307692316,-0.002361538461538526,0.002592307692307789
0.383,1.0,8.936515384615387,-3.486,-3.5961,-0.08146923076923085,-0.0023553846153846797,0.0025830769230770195
0.384,1.0,8.936369230769232,-3.486,-3.5961,-0.08146153846153854,-0.002349230769230833,0.00257384615384625
0.385,1.0,8.936223076923078,-3.486,-3.5961,-0.08145384615384624,-0.0023430769230769867,0.00256461538461548
0.386,1.0,8.936076923076925,-3.486,-3.5961,-0.08144615384615393,-0.0023369230769231405,0.0025553846153847106
0.387,1.0,8.93593076923077,-3.486,-3.5961,-0.08143846153846161,-0.002330769230769294,0.002546153846153941
0.388,1.0,8.935784615384616,-3.486,-3.5961,-0.0814307692307693,-0.0023246153846154475,0.0025369230769231718
0.389,1.0,8.935638461538463,-3.486,-3.5961,-0.081423076923077,-0.0023184615384616012,0.002527692307692402
0.39,1.0,8.935492307692309,-3.486,-3.5961,-0.0814153846153847,-0.002312307692307755,0.0025184615384616325
0.391,1.0,8.935346153846154,-3.486,-3.5961,-0.08140769230769239,-0.0023061538461539087,0.002509230769230863
0.392,1.0,8.935200000000002,-3.486,-3.5961,-0.08140000000000008,-0.002300000000000062,0.0025000000000000933
0.393,1.0,8.935272307692307,-3.485926153846155,-3.596173846153845,-0.08140461538461534,-0.0022953846153846618,0.002493846153846216
0.394,1.0,8.935344615384615,-3.4858523076923085,-3.5962476923076916,-0.08140923076923072,-0.002290769230769277,0.0024876923076923695
0.395,1.0,8.935416923076922,-3.4857784615384624,-3.5963215384615377,-0.08141384615384611,-0.002286153846153892,0.0024815384615385233
0.396,1.0,8.93548923076923,-3.4857046153846163,-3.5963953846153838,-0.0814184615384615,-0.0022815384615385076,0.0024753846153846766
0.397,1.0,8.935561538461538,-3.48563076923077,-3.59646923076923,-0.08142307692307688,-0.0022769230769231225,0.0024692307692308303
0.398,1.0,8.935633846153845,-3.485556923076924,-3.596543076923076,-0.08142769230769226,-0.002272307692307738,0.002463076923076984
0.399,1.0,8.935706153846153,-3.485483076923078,-3.596616923076922,-0.08143230769230765,-0.0022676923076923533,0.0024569230769231377
0.4,1.0,8.935778461538462,-3.4854092307692315,-3.5966907692307686,-0.08143692307692303,-0.0022630769230769683,0.002450769230769291
0.401,1.0,8.935850769230768,-3.4853353846153854,-3.5967646153846147,-0.08144153846153841,-0.0022584615384615837,0.0024446153846154448
0.402,1.0,8.935923076923077,-3.4852615384615393,-3.5968384615384608,-0.08144615384615381,-0.0022538461538461987,0.0024384615384615985
0.403,1.0,8.935995384615383,-3.485187692307693,-3.596912307692307,-0.08145076923076919,-0.002249230769230814,0.0024323076923077522
0.404,1.0,8.936067692307692,-3.485113846153847,-3.596986153846153,-0.08145538461538457,-0.002244615384615429,0.0024261538461539055
0.405,1.0,8.93614,-3.485040000000001,-3.597059999999999,-0.08145999999999995,-0.0022400000000000445,0.0024200000000000593
0.406,1.0,8.936212307692307,-3.4849661538461545,-3.5971338461538456,-0.08146461538461534,-0.00223538461538466,0.002413846153846213
0.40700000000000003,1.0,8.936284615384615,-3.4848923076923084,-3.5972076923076917,-0.08146923076923072,-0.002230769230769275,0.0024076923076923667
0.40800000000000003,1.0,8.936356923076922,-3.4848184615384623,-3.5972815384615378,-0.0814738461538461,-0.0022261538461538903,0.00240153846153852
0.40900000000000003,1.0,8.93642923076923,-3.484744615384616,-3.597355384615384,-0.0814784615384615,-0.0022215384615385052,0.0023953846153846737
0.41000000000000003,1.0,8.936501538461538,-3.48467076923077,-3.59742923076923,-0.08148307692307688,-0.0022169230769231206,0.0023892307692308275
0.41100000000000003,1.0,8.936573846153845,-3.484596923076924,-3.597503076923076,-0.08148769230769226,-0.0022123076923077356,0.002383076923076981
0.41200000000000003,1.0,8.936646153846153,-3.4845230769230775,-3.5975769230769226,-0.08149230769230764,-0.002207692307692351,0.0023769230769231345
0.41300000000000003,1.0,8.936718461538462,-3.4844492307692314,-3.5976507692307687,-0.08149692307692304,-0.0022030769230769664,0.0023707692307692882
0.41400000000000003,1.0,8.936790769230768,-3.4843753846153853,-3.5977246153846147,-0.08150153846153842,-0.0021984615384615814,0.002364615384615442
0.41500000000000004,1.0,8.936863076923077,-3.4843015384615392,-3.597798461538461,-0.0815061538461538,-0.002193846153846197,0.0023584615384615957
0.41600000000000004,1.0,8.936935384615383,-3.484227692307693,-3.597872307692307,-0.08151076923076919,-0.0021892307692308118,0.002352307692307749
0.417,1.0,8.937007692307692,-3.484153846153847,-3.597946153846153,-0.08151538461538457,-0.002184615384615427,0.002346153846153903
0.418,1.0,8.93708,-3.484080000000001,-3.598019999999999,-0.08151999999999995,-0.0021800000000000426,0.002340000000000057
0.419,1.0,8.937152307692307,-3.4840061538461544,-3.5980938461538456,-0.08152461538461533,-0.002175384615384658,0.0023338461538462106
0.42,1.0,8.937224615384615,-3.4839323076923083,-3.5981676923076917,-0.08152923076923073,-0.002170769230769273,0.002327692307692364
0.421,1.0,8.937296923076921,-3.4838584615384622,-3.598241538461538,-0.08153384615384611,-0.0021661538461538884,0.0023215384615385176
0.422,1.0,8.93736923076923,-3.483784615384616,-3.598315384615384,-0.08153846153846149,-0.0021615384615385033,0.0023153846153846714
0.423,1.0,8.937441538461538,-3.48371076923077,-3.59838923076923,-0.08154307692307688,-0.0021569230769231187,0.0023092307692308247
0.424,1.0,8.937513846153845,-3.483636923076924,-3.598463076923076,-0.08154769230769227,-0.0021523076923077337,0.0023030769230769784
0.425,1.0,8.937586153846153,-3.4835630769230774,-3.5985369230769226,-0.08155230769230765,-0.002147692307692349,0.002296923076923132
0.426,1.0,8.937658461538462,-3.4834892307692313,-3.5986107692307687,-0.08155692307692303,-0.0021430769230769645,0.002290769230769286
0.427,1.0,8.937730769230768,-3.4834153846153852,-3.598684615384615,-0.08156153846153842,-0.0021384615384615795,0.0022846153846154396
0.428,1.0,8.937803076923077,-3.483341538461539,-3.598758461538461,-0.0815661538461538,-0.002133846153846195,0.002278461538461593
0.429,1.0,8.937875384615383,-3.483267692307693,-3.598832307692307,-0.08157076923076918,-0.00212923076923081,0.0022723076923077466
0.43,1.0,8.937947692307691,-3.483193846153847,-3.598906153846153,-0.08157538461538458,-0.0021246153846154253,0.0022661538461539003
0.431,1.0,8.93802,-3.4831200000000004,-3.5989799999999996,-0.08157999999999996,-0.0021200000000000403,0.0022600000000000536
0.432,1.0,8.938092307692306,-3.4830461538461543,-3.5990538461538457,-0.08158461538461534,-0.0021153846153846557,0.0022538461538462074
0.433,1.0,8.938164615384615,-3.4829723076923083,-3.599127692307692,-0.08158923076923072,-0.002110769230769271,0.002247692307692361
0.434,1.0,8.938236923076921,-3.482898461538462,-3.599201538461538,-0.08159384615384611,-0.002106153846153886,0.002241538461538515
0.435,1.0,8.93830923076923,-3.482824615384616,-3.599275384615384,-0.0815984615384615,-0.0021015384615385014,0.0022353846153846686
0.436,1.0,8.938381538461538,-3.48275076923077,-3.59934923076923,-0.08160307692307688,-0.0020969230769231164,0.002229230769230822
0.437,1.0,8.938453846153845,-3.4826769230769234,-3.5994230769230766,-0.08160769230769227,-0.002092307692307732,0.0022230769230769756
0.438,1.0,8.938526153846153,-3.4826030769230774,-3.5994969230769227,-0.08161230769230765,-0.002087692307692347,0.0022169230769231293
0.439,1.0,8.938598461538461,-3.4825292307692313,-3.599570769230769,-0.08161692307692303,-0.002083076923076962,0.0022107692307692826
0.44,1.0,8.938670769230768,-3.482455384615385,-3.599644615384615,-0.08162153846153841,-0.0020784615384615776,0.0022046153846154363
0.441,1.0,8.938743076923076,-3.482381538461539,-3.599718461538461,-0.0816261538461538,-0.0020738461538461926,0.00219846153846159
0.442,1.0,8.938815384615383,-3.482307692307693,-3.599792307692307,-0.08163076923076919,-0.002069230769230808,0.002192307692307744
0.443,1.0,8.938887692307691,-3.482233846153847,-3.599866153846153,-0.08163538461538457,-0.002064615384615423,0.0021861538461538975
0.444,1.0,8.93896,-3.4821600000000004,-3.5999399999999997,-0.08163999999999996,-0.0020600000000000384,0.002180000000000051
0.445,1.0,8.939032307692306,-3.4820861538461543,-3.600013846153846,-0.08164461538461534,-0.0020553846153846533,0.0021738461538462046
0.446,1.0,8.939104615384615,-3.482012307692308,-3.600087692307692,-0.08164923076923072,-0.0020507692307692687,0.0021676923076923583
0.447,1.0,8.939176923076923,-3.481938461538462,-3.600161538461538,-0.08165384615384612,-0.002046153846153884,0.002161538461538512
0.448,1.0,8.93924923076923,-3.481864615384616,-3.600235384615384,-0.0816584615384615,-0.002041538461538499,0.0021553846153846653
0.449,1.0,8.939321538461538,-3.48179076923077,-3.60030923076923,-0.08166307692307688,-0.0020369230769231145,0.002149230769230819
0.45,1.0,8.939393846153845,-3.4817169230769234,-3.6003830769230767,-0.08166769230769226,-0.0020323076923077295,0.0021430769230769728
0.451,1.0,8.939466153846153,-3.4816430769230773,-3.6004569230769228,-0.08167230769230766,-0.002027692307692345,0.0021369230769231265
0.452,1.0,8.939538461538461,-3.481569230769231,-3.600530769230769,-0.08167692307692304,-0.00202307692307696,0.00213076923076928
0.453,1.0,8.939610769230768,-3.481495384615385,-3.600604615384615,-0.08168153846153842,-0.0020184615384615753,0.0021246153846154335
0.454,1.0,8.939683076923076,-3.481421538461539,-3.600678461538461,-0.08168615384615381,-0.0020138461538461907,0.0021184615384615873
0.455,1.0,8.939755384615383,-3.481347692307693,-3.600752307692307,-0.08169076923076919,-0.0020092307692308057,0.002112307692307741
0.456,1.0,8.939827692307691,-3.4812738461538464,-3.6008261538461537,-0.08169538461538457,-0.002004615384615421,0.0021061538461538943
0.457,1.0,8.9399,-3.4812000000000003,-3.6008999999999998,-0.08169999999999995,-0.002000000000000036,0.002100000000000048
0.458,1.0,8.939828787878788,-3.481343939393938,-3.6009,-0.0817,-0.001995454545454581,0.002068181818182068
0.459,1.0,8.939757575757577,-3.4814878787878776,-3.6009,-0.0817,-0.001990909090909127,0.0020363636363638876
0.46,1.0,8.939686363636364,-3.481631818181817,-3.6009,-0.0817,-0.0019863636363636724,0.002004545454545707
0.461,1.0,8.939615151515152,-3.481775757575756,-3.6009,-0.0817,-0.0019818181818182182,0.0019727272727275264
0.462,1.0,8.939543939393939,-3.4819196969696957,-3.6009,-0.0817,-0.0019772727272727637,0.0019409090909093458
0.463,1.0,8.939472727272728,-3.4820636363636353,-3.6009,-0.0817,-0.001972727272727309,0.0019090909090911652
0.464,1.0,8.939401515151516,-3.4822075757575743,-3.6009,-0.0817,-0.001968181818181855,0.0018772727272729844
0.465,1.0,8.939330303030303,-3.482351515151514,-3.6009,-0.0817,-0.0019636363636364004,0.0018454545454548038
0.466,1.0,8.939259090909092,-3.4824954545454534,-3.6009,-0.0817,-0.0019590909090909463,0.0018136363636366232
0.467,1.0,8.939187878787878,-3.4826393939393925,-3.6009,-0.0817,-0.0019545454545454918,0.0017818181818184426
0.468,1.0,8.939116666666667,-3.482783333333332,-3.6009,-0.0817,-0.0019500000000000374,0.001750000000000262
0.46900000000000003,1.0,8.939045454545456,-3.4829272727272715,-3.6009,-0.0817,-0.001945454545454583,0.0017181818181820812
0.47000000000000003,1.0,8.938974242424242,-3.4830712121212106,-3.6009,-0.0817,-0.0019409090909091287,0.0016863636363639006
0.47100000000000003,1.0,8.938903030303031,-3.48321515151515,-3.6009,-0.0817,-0.0019363636363636744,0.00165454545454572
0.47200000000000003,1.0,8.938831818181818,-3.4833590909090897,-3.6009,-0.0817,-0.0019318181818182198,0.0016227272727275394
0.47300000000000003,1.0,8.938760606060606,-3.4835030303030288,-3.6009,-0.0817,-0.0019272727272727655,0.0015909090909093588
0.47400000000000003,1.0,8.938689393939395,-3.4836469696969683,-3.6009,-0.0817,-0.0019227272727273112,0.0015590909090911782
0.47500000000000003,1.0,8.938618181818182,-3.483790909090908,-3.6009,-0.0817,-0.0019181818181818568,0.0015272727272729976
0.47600000000000003,1.0,8.93854696969697,-3.483934848484847,-3.6009,-0.0817,-0.0019136363636364025,0.001495454545454817
0.47700000000000004,1.0,8.938475757575757,-3.4840787878787864,-3.6009,-0.0817,-0.001909090909090948,0.0014636363636366364
0.47800000000000004,1.0,8.938404545454546,-3.484222727272726,-3.6009,-0.0817,-0.0019045454545454936,0.0014318181818184555
0.47900000000000004,1.0,8.938333333333334,-3.4843666666666655,-3.6009,-0.0817,-0.0019000000000000392,0.001400000000000275
0.48,1.0,8.938262121212121,-3.4845106060606046,-3.6009,-0.0817,-0.0018954545454545851,0.001368181818182096
0.481,1.0,8.93819090909091,-3.484654545454544,-3.6009,-0.0817,-0.0018909090909091308,0.0013363636363639155
0.482,1.0,8.938119696969698,-3.4847984848484836,-3.6009,-0.0817,-0.0018863636363636764,0.0013045454545457347
0.483,1.0,8.938048484848485,-3.4849424242424227,-3.6009,-0.0817,-0.001881818181818222,0.001272727272727554
0.484,1.0,8.937977272727274,-3.4850863636363623,-3.6009,-0.0817,-0.0018772727272727675,0.0012409090909093735
0.485,1.0,8.93790606060606,-3.485230303030302,-3.6009,-0.0817,-0.0018727272727273132,0.0012090909090911929
0.486,1.0,8.937834848484849,-3.485374242424241,-3.6009,-0.0817,-0.0018681818181818589,0.0011772727272730123
0.487,1.0,8.937763636363638,-3.4855181818181804,-3.6009,-0.0817,-0.0018636363636364045,0.0011454545454548317
0.488,1.0,8.937692424242424,-3.48566212121212,-3.6009,-0.0817,-0.0018590909090909502,0.001113636363636651
0.489,1.0,8.937621212121213,-3.485806060606059,-3.6009,-0.0817,-0.0018545454545454958,0.0010818181818184702
0.49,1.0,8.93755,-3.4859499999999985,-3.6009,-0.0817,-0.0018500000000000413,0.0010500000000002896
0.491,1.0,8.937478787878788,-3.486093939393938,-3.6009,-0.0817,-0.001845454545454587,0.001018181818182109
0.492,1.0,8.937407575757577,-3.486237878787877,-3.6009,-0.0817,-0.0018409090909091326,0.0009863636363639284
0.493,1.0,8.937336363636364,-3.4863818181818167,-3.6009,-0.0817,-0.0018363636363636783,0.0009545454545457478
0.494,1.0,8.937265151515152,-3.4865257575757562,-3.6009,-0.0817,-0.001831818181818224,0.0009227272727275672
0.495,1.0,8.93719393939394,-3.4866696969696953,-3.6009,-0.0817,-0.0018272727272727694,0.0008909090909093864
0.496,1.0,8.937122727272728,-3.486813636363635,-3.6009,-0.0817,-0.001822727272727315,0.0008590909090912058
0.497,1.0,8.937051515151516,-3.4869575757575744,-3.6009,-0.0817,-0.0018181818181818607,0.0008272727272730252
0.498,1.0,8.936980303030303,-3.487101515151514,-3.6009,-0.0817,-0.0018136363636364063,0.0007954545454548446
0.499,1.0,8.936909090909092,-3.487245454545453,-3.6009,-0.0817,-0.001809090909090952,0.000763636363636664
0.5,1.0,8.936837878787879,-3.4873893939393925,-3.6009,-0.0817,-0.0018045454545454974,0.0007318181818184834
0.501,1.0,8.936766666666667,-3.487533333333332,-3.6009,-0.0817,-0.001800000000000043,0.0007000000000003028
0.502,1.0,8.936695454545456,-3.487677272727271,-3.6009,-0.0817,-0.0017954545454545888,0.000668181818182122
0.503,1.0,8.936624242424243,-3.4878212121212107,-3.6009,-0.0817,-0.0017909090909091344,0.0006363636363639414
0.504,1.0,8.936553030303031,-3.48796515151515,-3.6009,-0.0817,-0.00178636363636368,0.0006045454545457608
0.505,1.0,8.936481818181818,-3.4881090909090893,-3.6009,-0.0817,-0.0017818181818182257,0.0005727272727275802
0.506,1.0,8.936410606060607,-3.488253030303029,-3.6009,-0.0817,-0.0017772727272727714,0.0005409090909093996
0.507,1.0,8.936339393939395,-3.4883969696969683,-3.6009,-0.0817,-0.0017727272727273168,0.000509090909091219
0.508,1.0,8.936268181818182,-3.4885409090909074,-3.6009,-0.0817,-0.0017681818181818625,0.00047727272727303817
0.509,1.0,8.93619696969697,-3.488684848484847,-3.6009,-0.0817,-0.0017636363636364082,0.00044545454545485757
0.51,1.0,8.936125757575759,-3.4888287878787865,-3.6009,-0.0817,-0.0017590909090909538,0.00041363636363667697
0.511,1.0,8.936054545454546,-3.4889727272727256,-3.6009,-0.0817,-0.0017545454545454995,0.00038181818181849637
0.512,1.0,8.935983333333334,-3.489116666666665,-3.6009,-0.0817,-0.001750000000000045,0.00035000000000031577
0.513,1.0,8.935912121212121,-3.4892606060606046,-3.6009,-0.0817,-0.0017454545454545906,0.00031818181818213517
0.514,1.0,8.93584090909091,-3.4894045454545437,-3.6009,-0.0817,-0.0017409090909091362,0.00028636363636395435
0.515,1.0,8.935769696969698,-3.4895484848484832,-3.6009,-0.0817,-0.001736363636363682,0.00025454545454577375
0.516,1.0,8.935698484848485,-3.4896924242424228,-3.6009,-0.0817,-0.0017318181818182276,0.00022272727272759315
0.517,1.0,8.935627272727274,-3.4898363636363623,-3.6009,-0.0817,-0.001727272727272773,0.00019090909090941255
0.518,1.0,8.93555606060606,-3.4899803030303014,-3.6009,-0.0817,-0.0017227272727273187,0.00015909090909123195
0.519,1.0,8.93548484848485,-3.490124242424241,-3.6009,-0.0817,-0.0017181818181818643,0.00012727272727305113
0.52,1.0,8.935413636363638,-3.4902681818181804,-3.6009,-0.0817,-0.00171363636363641,9.545454545487053e-05
0.521,1.0,8.935342424242425,-3.4904121212121195,-3.6009,-0.0817,-0.0017090909090909556,6.363636363668993e-05
0.522,1.0,8.935271212121213,-3.490556060606059,-3.6009,-0.0817,-0.0017045454545455013,3.181818181850933e-05
0.523,1.0,8.9352,-3.4906999999999986,-3.6009,-0.0817,-0.001700000000000047,3.2873009869760494e-16
0.524,1.0,8.9352,-3.4905538461538477,-3.6009,-0.0816969230769231,-0.0017,1.2307692307565673e-05
0.525,1.0,8.9352,-3.4904076923076937,-3.6009,-0.08169384615384619,-0.0017,2.4615384615258422e-05
0.526,1.0,8.9352,-3.49026153846154,-3.6009,-0.08169076923076926,-0.0017,3.6923076922951175e-05
0.527,1.0,8.9352,-3.490115384615386,-3.6009,-0.08168769230769234,-0.0017,4.9230769230643926e-05
0.528,1.0,8.9352,-3.489969230769232,-3.6009,-0.08168461538461541,-0.0017,6.153846153833668e-05
0.529,1.0,8.9352,-3.4898230769230785,-3.6009,-0.08168153846153849,-0.0017,7.384615384602942e-05
0.53,1.0,8.9352,-3.4896769230769245,-3.6009,-0.08167846153846156,-0.0017,8.615384615372218e-05
0.531,1.0,8.9352,-3.4895307692307704,-3.6009,-0.08167538461538464,-0.0017,9.846153846141493e-05
0.532,1.0,8.9352,-3.489384615384617,-3.6009,-0.08167230769230772,-0.0017,0.00011076923076910768
0.533,1.0,8.9352,-3.489238461538463,-3.6009,-0.0816692307692308,-0.0017,0.00012307692307680042
0.534,1.0,8.9352,-3.489092307692309,-3.6009,-0.08166615384615387,-0.0017,0.00013538461538449318
0.535,1.0,8.9352,-3.4889461538461553,-3.6009,-0.08166307692307695,-0.0017,0.00014769230769218593
0.536,1.0,8.9352,-3.4888000000000012,-3.6009,-0.08166000000000002,-0.0017,0.0001599999999998787
0.537,1.0,8.9352,-3.4886538461538477,-3.6009,-0.0816569230769231,-0.0017,0.00017230769230757142
0.538,1.0,8.9352,-3.4885076923076936,-3.6009,-0.08165384615384617,-0.0017,0.00018461538461526418
0.539,1.0,8.9352,-3.4883615384615396,-3.6009,-0.08165076923076926,-0.0017,0.00019692307692295693
0.54,1.0,8.9352,-3.488215384615386,-3.6009,-0.08164769230769234,-0.0017,0.0002092307692306497
0.541,1.0,8.9352,-3.488069230769232,-3.6009,-0.08164461538461541,-0.0017,0.00022153846153834242
0.542,1.0,8.9352,-3.487923076923078,-3.6009,-0.08164153846153849,-0.0017,0.00023384615384603518
0.543,1.0,8.9352,-3.4877769230769244,-3.6009,-0.08163846153846156,-0.0017,0.0002461538461537279
0.544,1.0,8.9352,-3.4876307692307704,-3.6009,-0.08163538461538464,-0.0017,0.00025846153846142067
0.545,1.0,8.9352,-3.487484615384617,-3.6009,-0.08163230769230771,-0.0017,0.0002707692307691134
0.546,1.0,8.9352,-3.487338461538463,-3.6009,-0.0816292307692308,-0.0017,0.0002830769230768062
0.547,1.0,8.9352,-3.487192307692309,-3.6009,-0.08162615384615388,-0.0017,0.00029538461538449894
0.548,1.0,8.9352,-3.4870461538461552,-3.6009,-0.08162307692307695,-0.0017,0.0003076923076921917
0.549,1.0,8.9352,-3.486900000000001,-3.6009,-0.08162000000000003,-0.0017,0.00031999999999988445
0.55,1.0,8.9352,-3.486753846153847,-3.6009,-0.0816169230769231,-0.0017,0.0003323076923075772
0.551,1.0,8.9352,-3.4866076923076936,-3.6009,-0.08161384615384618,-0.0017,0.00034461538461526996
0.552,1.0,8.9352,-3.4864615384615396,-3.6009,-0.08161076923076926,-0.0017,0.00035692307692296267
0.553,1.0,8.9352,-3.486315384615386,-3.6009,-0.08160769230769234,-0.0017,0.0003692307692306554
0.554,1.0,8.9352,-3.486169230769232,-3.6009,-0.08160461538461541,-0.0017,0.0003815384615383482
0.555,1.0,8.9352,-3.486023076923078,-3.6009,-0.08160153846153849,-0.0017,0.00039384615384604094
0.556,1.0,8.9352,-3.4858769230769244,-3.6009,-0.08159846153846156,-0.0017,0.0004061538461537337
0.557,1.0,8.9352,-3.4857307692307704,-3.6009,-0.08159538461538464,-0.0017,0.00041846153846142645
0.558,1.0,8.9352,-3.4855846153846164,-3.6009,-0.08159230769230771,-0.0017,0.0004307692307691192
0.559,1.0,8.9352,-3.485438461538463,-3.6009,-0.0815892307692308,-0.0017,0.00044307692307681197
0.56,1.0,8.9352,-3.485292307692309,-3.6009,-0.08158615384615388,-0.0017,0.00045538461538450467
0.561,1.0,8.9352,-3.4851461538461552,-3.6009,-0.08158307692307695,-0.0017,0.0004676923076921974
0.562,1.0,8.9352,-3.485000000000001,-3.6009,-0.08158000000000003,-0.0017,0.0004799999999998902
0.5630000000000001,1.0,8.9352,-3.484853846153847,-3.6009,-0.0815769230769231,-0.0017,0.000492307692307583
0.5640000000000001,1.0,8.9352,-3.4847076923076936,-3.6009,-0.08157384615384618,-0.0017,0.0005046153846152756
0.5650000000000001,1.0,8.9352,-3.4845615384615396,-3.6009,-0.08157076923076925,-0.0017,0.0005169230769229684
0.5660000000000001,1.0,8.9352,-3.4844153846153856,-3.6009,-0.08156769230769234,-0.0017,0.0005292307692306612
0.5670000000000001,1.0,8.9352,-3.484269230769232,-3.6009,-0.08156461538461542,-0.0017,0.0005415384615383539
0.5680000000000001,1.0,8.9352,-3.484123076923078,-3.6009,-0.08156153846153849,-0.0017,0.0005538461538460467
0.5690000000000001,1.0,8.9352,-3.4839769230769244,-3.6009,-0.08155846153846157,-0.0017,0.0005661538461537394
0.5700000000000001,1.0,8.9352,-3.4838307692307704,-3.6009,-0.08155538461538464,-0.0017,0.0005784615384614322
0.5710000000000001,1.0,8.9352,-3.4836846153846164,-3.6009,-0.08155230769230772,-0.0017,0.0005907692307691249
0.5720000000000001,1.0,8.9352,-3.483538461538463,-3.6009,-0.08154923076923079,-0.0017,0.0006030769230768177
0.5730000000000001,1.0,8.9352,-3.483392307692309,-3.6009,-0.08154615384615388,-0.0017,0.0006153846153845105
0.5740000000000001,1.0,8.9352,-3.4832461538461548,-3.6009,-0.08154307692307695,-0.0017,0.0006276923076922032
0.5750000000000001,1.0,8.9352,-3.483100000000001,-3.6009,-0.08154000000000003,-0.0017,0.000639999999999896
0.5760000000000001,1.0,8.9352,-3.482953846153847,-3.6009,-0.0815369230769231,-0.0017,0.0006523076923075887
0.577,1.0,8.9352,-3.4828076923076936,-3.6009,-0.08153384615384618,-0.0017,0.0006646153846152801
0.578,1.0,8.9352,-3.4826615384615396,-3.6009,-0.08153076923076925,-0.0017,0.0006769230769229728
0.579,1.0,8.9352,-3.4825153846153856,-3.6009,-0.08152769230769233,-0.0017,0.0006892307692306656
0.58,1.0,8.9352,-3.482369230769232,-3.6009,-0.08152461538461542,-0.0017,0.0007015384615383583
0.581,1.0,8.9352,-3.482223076923078,-3.6009,-0.08152153846153849,-0.0017,0.0007138461538460511
0.582,1.0,8.9352,-3.482076923076924,-3.6009,-0.08151846153846157,-0.0017,0.0007261538461537439
0.583,1.0,8.9352,-3.4819307692307704,-3.6009,-0.08151538461538464,-0.0017,0.0007384615384614366
0.584,1.0,8.9352,-3.4817846153846164,-3.6009,-0.08151230769230772,-0.0017,0.0007507692307691294
0.585,1.0,8.9352,-3.481638461538463,-3.6009,-0.08150923076923079,-0.0017,0.0007630769230768221
0.586,1.0,8.9352,-3.4814923076923088,-3.6009,-0.08150615384615388,-0.0017,0.0007753846153845149
0.587,1.0,8.9352,-3.4813461538461548,-3.6009,-0.08150307692307696,-0.0017,0.0007876923076922076
0.588,1.0,8.9352,-3.481200000000001,-3.6009,-0.08150000000000003,-0.0017,0.0007999999999999003
0.589,1.0,8.935346153846153,-3.4812738461538455,-3.6009,-0.0815,-0.001703076923076898,0.0007892307692308561
0.59,1.0,8.935492307692307,-3.4813476923076916,-3.6009,-0.0815,-0.0017061538461538212,0.000778461538461625
0.591,1.0,8.93563846153846,-3.4814215384615377,-3.6009,-0.0815,-0.0017092307692307446,0.0007676923076923939
0.592,1.0,8.935784615384614,-3.4814953846153838,-3.6009,-0.0815,-0.0017123076923076677,0.0007569230769231627
0.593,1.0,8.935930769230769,-3.48156923076923,-3.6009,-0.0815,-0.0017153846153845909,0.0007461538461539316
0.594,1.0,8.936076923076921,-3.4816430769230764,-3.6009,-0.0815,-0.001718461538461514,0.0007353846153847004
0.595,1.0,8.936223076923076,-3.4817169230769225,-3.6009,-0.0815,-0.0017215384615384373,0.0007246153846154692
0.596,1.0,8.93636923076923,-3.4817907692307686,-3.6009,-0.0815,-0.0017246153846153605,0.0007138461538462381
0.597,1.0,8.936515384615383,-3.4818646153846147,-3.6009,-0.0815,-0.0017276923076922836,0.0007030769230770069
0.598,1.0,8.936661538461538,-3.4819384615384608,-3.6009,-0.0815,-0.0017307692307692068,0.0006923076923077757
0.599,1.0,8.93680769230769,-3.482012307692307,-3.6009,-0.0815,-0.00173384615384613,0.0006815384615385446
0.6,1.0,8.936953846153845,-3.4820861538461534,-3.6009,-0.0815,-0.0017369230769230532,0.0006707692307693135
0.601,1.0,8.9371,-3.4821599999999995,-3.6009,-0.0815,-0.0017399999999999764,0.0006600000000000823
0.602,1.0,8.937246153846152,-3.4822338461538456,-3.6009,-0.0815,-0.0017430769230768995,0.0006492307692308511
0.603,1.0,8.937392307692306,-3.4823076923076917,-3.6009,-0.0815,-0.0017461538461538229,0.00063846153846162
0.604,1.0,8.93753846153846,-3.4823815384615378,-3.6009,-0.0815,-0.001749230769230746,0.0006276923076923888
0.605,1.0,8.937684615384613,-3.482455384615384,-3.6009,-0.0815,-0.0017523076923076691,0.0006169230769231576
0.606,1.0,8.937830769230768,-3.4825292307692304,-3.6009,-0.0815,-0.0017553846153845923,0.0006061538461539266
0.607,1.0,8.937976923076922,-3.4826030769230765,-3.6009,-0.0815,-0.0017584615384615156,0.0005953846153846954
0.608,1.0,8.938123076923075,-3.4826769230769226,-3.6009,-0.0815,-0.0017615384615384388,0.0005846153846154642
0.609,1.0,8.93826923076923,-3.4827507692307687,-3.6009,-0.0815,-0.0017646153846153619,0.0005738461538462331
0.61,1.0,8.938415384615384,-3.4828246153846147,-3.6009,-0.0815,-0.001767692307692285,0.0005630769230770019
0.611,1.0,8.938561538461537,-3.482898461538461,-3.6009,-0.0815,-0.0017707692307692084,0.0005523076923077707
0.612,1.0,8.938707692307691,-3.482972307692307,-3.6009,-0.0815,-0.0017738461538461315,0.0005415384615385396
0.613,1.0,8.938853846153846,-3.4830461538461535,-3.6009,-0.0815,-0.0017769230769230546,0.0005307692307693084
0.614,1.0,8.938999999999998,-3.4831199999999995,-3.6009,-0.0815,-0.0017799999999999778,0.0005200000000000773
0.615,1.0,8.939146153846153,-3.4831938461538456,-3.6009,-0.0815,-0.0017830769230769011,0.0005092307692308462
0.616,1.0,8.939292307692307,-3.4832676923076917,-3.6009,-0.0815,-0.0017861538461538243,0.000498461538461615
0.617,1.0,8.93943846153846,-3.483341538461538,-3.6009,-0.0815,-0.0017892307692307474,0.00048769230769238385
0.618,1.0,8.939584615384614,-3.483415384615384,-3.6009,-0.0815,-0.0017923076923076705,0.00047692307692315266
0.619,1.0,8.939730769230767,-3.4834892307692304,-3.6009,-0.0815,-0.0017953846153845939,0.00046615384615392153
0.62,1.0,8.939876923076921,-3.4835630769230765,-3.6009,-0.0815,-0.001798461538461517,0.0004553846153846904
0.621,1.0,8.940023076923076,-3.4836369230769226,-3.6009,-0.0815,-0.0018015384615384402,0.0004446153846154592
0.622,1.0,8.940169230769229,-3.4837107692307687,-3.6009,-0.0815,-0.0018046153846153633,0.00043384615384622807
0.623,1.0,8.940315384615383,-3.483784615384615,-3.6009,-0.0815,-0.0018076923076922866,0.0004230769230769969
0.624,1.0,8.940461538461538,-3.483858461538461,-3.6009,-0.0815,-0.0018107692307692098,0.00041230769230776574
0.625,1.0,8.94060769230769,-3.4839323076923074,-3.6009,-0.0815,-0.001813846153846133,0.0004015384615385346
0.626,1.0,8.940753846153845,-3.4840061538461535,-3.6009,-0.0815,-0.001816923076923056,0.0003907692307693034
0.627,1.0,8.9409,-3.4840799999999996,-3.6009,-0.0815,-0.0018199999999999794,0.0003800000000000723
0.628,1.0,8.941046153846152,-3.4841538461538457,-3.6009,-0.0815,-0.0018230769230769025,0.00036923076923084115
0.629,1.0,8.941192307692306,-3.484227692307692,-3.6009,-0.0815,-0.0018261538461538257,0.00035846153846160996
0.63,1.0,8.94133846153846,-3.484301538461538,-3.6009,-0.0815,-0.0018292307692307488,0.0003476923076923788
0.631,1.0,8.941484615384613,-3.4843753846153844,-3.6009,-0.0815,-0.0018323076923076722,0.0003369230769231477
0.632,1.0,8.941630769230768,-3.4844492307692305,-3.6009,-0.0815,-0.0018353846153845953,0.0003261538461539165
0.633,1.0,8.941776923076922,-3.4845230769230766,-3.6009,-0.0815,-0.0018384615384615184,0.00031538461538468536
0.634,1.0,8.941923076923075,-3.4845969230769227,-3.6009,-0.0815,-0.0018415384615384416,0.00030461538461545423
0.635,1.0,8.94206923076923,-3.484670769230769,-3.6009,-0.0815,-0.001844615384615365,0.00029384615384622304
0.636,1.0,8.942215384615382,-3.484744615384615,-3.6009,-0.0815,-0.001847692307692288,0.00028307692307699185
0.637,1.0,8.942361538461537,-3.484818461538461,-3.6009,-0.0815,-0.0018507692307692112,0.00027230769230776077
0.638,1.0,8.942507692307691,-3.4848923076923075,-3.6009,-0.0815,-0.0018538461538461343,0.0002615384615385296
0.639,1.0,8.942653846153844,-3.4849661538461536,-3.6009,-0.0815,-0.0018569230769230577,0.0002507692307692984
0.64,1.0,8.942799999999998,-3.4850399999999997,-3.6009,-0.0815,-0.0018599999999999808,0.0002400000000000673
0.641,1.0,8.942946153846153,-3.485113846153846,-3.6009,-0.0815,-0.001863076923076904,0.00022923076923083612
0.642,1.0,8.943092307692305,-3.485187692307692,-3.6009,-0.0815,-0.001866153846153827,0.00021846153846160493
0.643,1.0,8.94323846153846,-3.485261538461538,-3.6009,-0.0815,-0.0018692307692307502,0.00020769230769237385
0.644,1.0,8.943384615384614,-3.4853353846153845,-3.6009,-0.0815,-0.0018723076923076736,0.00019692307692314266
0.645,1.0,8.943530769230767,-3.4854092307692306,-3.6009,-0.0815,-0.0018753846153845967,0.00018615384615391147
0.646,1.0,8.943676923076922,-3.4854830769230767,-3.6009,-0.0815,-0.0018784615384615198,0.0001753846153846804
0.647,1.0,8.943823076923076,-3.4855569230769228,-3.6009,-0.0815,-0.0018815384615384432,0.0001646153846154492
0.648,1.0,8.943969230769229,-3.485630769230769,-3.6009,-0.0815,-0.0018846153846153663,0.000153846153846218
0.649,1.0,8.944115384615383,-3.485704615384615,-3.6009,-0.0815,-0.0018876923076922895,0.00014307692307698693
0.65,1.0,8.944261538461538,-3.4857784615384615,-3.6009,-0.0815,-0.0018907692307692126,0.00013230769230775574
0.651,1.0,8.94440769230769,-3.4858523076923076,-3.6009,-0.0815,-0.0018938461538461357,0.00012153846153852455
0.652,1.0,8.944553846153845,-3.4859261538461537,-3.6009,-0.0815,-0.001896923076923059,0.00011076923076929336
0.653,1.0,8.9447,-3.4859999999999998,-3.6009,-0.0815,-0.0018999999999999822,0.00010000000000006228
0.654,1.0,8.9447,-3.486,-3.6011166666666656,-0.0815,-0.0019,0.00010454545454542813
0.655,1.0,8.9447,-3.486,-3.6013333333333324,-0.0815,-0.0019,0.00010909090909088252
0.656,1.0,8.9447,-3.486,-3.601549999999999,-0.0815,-0.0019,0.0001136363636363369
0.657,1.0,8.9447,-3.486,-3.6017666666666655,-0.0815,-0.0019,0.00011818181818179128
0.658,1.0,8.9447,-3.486,-3.601983333333332,-0.0815,-0.0019,0.00012272727272724565
0.659,1.0,8.9447,-3.486,-3.602199999999999,-0.0815,-0.0019,0.00012727272727270001
0.66,1.0,8.9447,-3.486,-3.6024166666666657,-0.0815,-0.0019,0.0001318181818181544
0.661,1.0,8.9447,-3.486,-3.602633333333332,-0.0815,-0.0019,0.00013636363636360878
0.662,1.0,8.9447,-3.486,-3.6028499999999988,-0.0815,-0.0019,0.00014090909090906317
0.663,1.0,8.9447,-3.486,-3.6030666666666655,-0.0815,-0.0019,0.00014545454545451754
0.664,1.0,8.9447,-3.486,-3.6032833333333323,-0.0815,-0.0019,0.0001499999999999719
0.665,1.0,8.9447,-3.486,-3.603499999999999,-0.0815,-0.0019,0.0001545454545454263
0.666,1.0,8.9447,-3.486,-3.6037166666666653,-0.0815,-0.0019,0.00015909090909088067
0.667,1.0,8.9447,-3.486,-3.603933333333332,-0.0815,-0.0019,0.00016363636363633506
0.668,1.0,8.9447,-3.486,-3.604149999999999,-0.0815,-0.0019,0.00016818181818178943
0.669,1.0,8.9447,-3.486,-3.6043666666666656,-0.0815,-0.0019,0.0001727272727272438
0.67,1.0,8.9447,-3.486,-3.6045833333333324,-0.0815,-0.0019,0.0001772727272726982
0.671,1.0,8.9447,-3.486,-3.6047999999999987,-0.0815,-0.0019,0.00018181818181815256
0.672,1.0,8.9447,-3.486,-3.6050166666666654,-0.0815,-0.0019,0.00018636363636360693
0.673,1.0,8.9447,-3.486,-3.605233333333332,-0.0815,-0.0019,0.00019090909090906132
0.674,1.0,8.9447,-3.486,-3.605449999999999,-0.0815,-0.0019,0.0001954545454545157
0.675,1.0,8.9447,-3.486,-3.6056666666666652,-0.0815,-0.0019,0.00019999999999997006
0.676,1.0,8.9447,-3.486,-3.605883333333332,-0.0815,-0.0019,0.00020454545454542445
0.677,1.0,8.9447,-3.486,-3.6060999999999988,-0.0815,-0.0019,0.00020909090909087882
0.678,1.0,8.9447,-3.486,-3.6063166666666655,-0.0815,-0.0019,0.0002136363636363332
0.679,1.0,8.9447,-3.486,-3.6065333333333323,-0.0815,-0.0019,0.00021818181818178758
0.68,1.0,8.9447,-3.486,-3.6067499999999986,-0.0815,-0.0019,0.00022272727272724198
0.681,1.0,8.9447,-3.486,-3.6069666666666653,-0.0815,-0.0019,0.00022727272727269632
0.682,1.0,8.9447,-3.486,-3.607183333333332,-0.0815,-0.0019,0.0002318181818181507
0.683,1.0,8.9447,-3.486,-3.607399999999999,-0.0815,-0.0019,0.0002363636363636051
0.684,1.0,8.9447,-3.486,-3.6076166666666656,-0.0815,-0.0019,0.00024090909090905945
0.685,1.0,8.9447,-3.486,-3.607833333333332,-0.0815,-0.0019,0.00024545454545451384
0.686,1.0,8.9447,-3.486,-3.6080499999999986,-0.0815,-0.0019,0.00024999999999996824
0.687,1.0,8.9447,-3.486,-3.6082666666666654,-0.0815,-0.0019,0.0002545454545454226
0.6880000000000001,1.0,8.9447,-3.486,-3.608483333333332,-0.0815,-0.0019,0.000259090909090877
0.6890000000000001,1.0,8.9447,-3.486,-3.6086999999999985,-0.0815,-0.0019,0.00026363636363633137
0.6900000000000001,1.0,8.9447,-3.486,-3.608916666666665,-0.0815,-0.0019,0.0002681818181817857
0.6910000000000001,1.0,8.9447,-3.486,-3.609133333333332,-0.0815,-0.0019,0.0002727272727272401
0.6920000000000001,1.0,8.9447,-3.486,-3.6093499999999987,-0.0815,-0.0019,0.0002772727272726945
0.6930000000000001,1.0,8.9447,-3.486,-3.6095666666666655,-0.0815,-0.0019,0.00028181818181814884
0.6940000000000001,1.0,8.9447,-3.486,-3.609783333333332,-0.0815,-0.0019,0.00028636363636360323
0.6950000000000001,1.0,8.9447,-3.486,-3.6099999999999985,-0.0815,-0.0019,0.00029090909090905763
0.6960000000000001,1.0,8.9447,-3.486,-3.6102166666666653,-0.0815,-0.0019,0.000295454545454512
0.6970000000000001,1.0,8.9447,-3.486,-3.610433333333332,-0.0815,-0.0019,0.00029999999999996636
0.6980000000000001,1.0,8.9447,-3.486,-3.610649999999999,-0.0815,-0.0019,0.00030454545454542076
0.6990000000000001,1.0,8.9447,-3.486,-3.610866666666665,-0.0815,-0.0019,0.00030909090909087515
0.7000000000000001,1.0,8.9447,-3.486,-3.611083333333332,-0.0815,-0.0019,0.0003136363636363295
0.7010000000000001,1.0,8.9447,-3.486,-3.6112999999999986,-0.0815,-0.0019,0.0003181818181817839
0.7020000000000001,1.0,8.9447,-3.486,-3.6115166666666654,-0.0815,-0.0019,0.0003227272727272383
0.7030000000000001,1.0,8.9447,-3.486,-3.6117333333333317,-0.0815,-0.0019,0.0003272727272726926
0.704,1.0,8.9447,-3.486,-3.6119499999999984,-0.0815,-0.0019,0.00033181818181814653
0.705,1.0,8.9447,-3.486,-3.612166666666665,-0.0815,-0.0019,0.00033636363636360087
0.706,1.0,8.9447,-3.486,-3.612383333333332,-0.0815,-0.0019,0.00034090909090905527
0.707,1.0,8.9447,-3.486,-3.6125999999999987,-0.0815,-0.0019,0.0003454545454545096
0.708,1.0,8.9447,-3.486,-3.612816666666665,-0.0815,-0.0019,0.000349999999999964
0.709,1.0,8.9447,-3.486,-3.6130333333333318,-0.0815,-0.0019,0.0003545454545454184
0.71,1.0,8.9447,-3.486,-3.6132499999999985,-0.0815,-0.0019,0.0003590909090908728
0.711,1.0,8.9447,-3.486,-3.6134666666666653,-0.0815,-0.0019,0.00036363636363632713
0.712,1.0,8.9447,-3.486,-3.6136833333333316,-0.0815,-0.0019,0.0003681818181817815
0.713,1.0,8.9447,-3.486,-3.6138999999999983,-0.0815,-0.0019,0.0003727272727272359
0.714,1.0,8.9447,-3.486,-3.614116666666665,-0.0815,-0.0019,0.00037727272727269026
0.715,1.0,8.9447,-3.486,-3.614333333333332,-0.0815,-0.0019,0.00038181818181814466
0.716,1.0,8.9447,-3.486,-3.6145499999999986,-0.0815,-0.0019,0.00038636363636359905
0.717,1.0,8.9447,-3.486,-3.614766666666665,-0.0815,-0.0019,0.0003909090909090534
0.718,1.0,8.9447,-3.486,-3.6149833333333317,-0.0815,-0.0019,0.0003954545454545078
0.719,1.0,8.9447,-3.486,-3.6151999999999984,-0.0815,-0.0019,0.0003999999999999622
0.72,1.0,8.9447,-3.485852307692309,-3.6146846153846197,-0.08149076923076931,-0.001893846153846205,0.00040615384615379517
0.721,1.0,8.9447,-3.4857046153846167,-3.6141692307692352,-0.08148153846153854,-0.0018876923076923584,0.00041230769230764155
0.722,1.0,8.9447,-3.4855569230769246,-3.6136538461538508,-0.08147230769230777,-0.0018815384615385121,0.0004184615384614879
0.723,1.0,8.9447,-3.4854092307692324,-3.613138461538466,-0.081463076923077,-0.0018753846153846657,0.0004246153846153343
0.724,1.0,8.9447,-3.4852615384615397,-3.6126230769230814,-0.08145384615384624,-0.0018692307692308194,0.0004307692307691807
0.725,1.0,8.9447,-3.4851138461538476,-3.6121076923076965,-0.08144461538461546,-0.001863076923076973,0.000436923076923027
0.726,1.0,8.9447,-3.4849661538461554,-3.611592307692312,-0.08143538461538469,-0.0018569230769231266,0.0004430769230768734
0.727,1.0,8.9447,-3.4848184615384628,-3.6110769230769275,-0.08142615384615393,-0.0018507692307692801,0.00044923076923071976
0.728,1.0,8.9447,-3.4846707692307706,-3.6105615384615426,-0.08141692307692315,-0.0018446153846154339,0.00045538461538456614
0.729,1.0,8.9447,-3.4845230769230784,-3.610046153846158,-0.08140769230769239,-0.0018384615384615874,0.0004615384615384125
0.73,1.0,8.9447,-3.4843753846153858,-3.6095307692307737,-0.08139846153846161,-0.0018323076923077411,0.0004676923076922589
0.731,1.0,8.9447,-3.4842276923076936,-3.6090153846153887,-0.08138923076923084,-0.0018261538461538948,0.0004738461538461053
0.732,1.0,8.9447,-3.4840800000000014,-3.6085000000000043,-0.08138000000000008,-0.0018200000000000484,0.00047999999999995166
0.733,1.0,8.9447,-3.483932307692309,-3.60798461538462,-0.0813707692307693,-0.001813846153846202,0.00048615384615379804
0.734,1.0,8.9447,-3.4837846153846166,-3.607469230769235,-0.08136153846153854,-0.0018076923076923556,0.0004923076923076444
0.735,1.0,8.9447,-3.4836369230769244,-3.6069538461538504,-0.08135230769230777,-0.0018015384615385093,0.0004984615384614907
0.736,1.0,8.9447,-3.4834892307692322,-3.6064384615384655,-0.08134307692307699,-0.0017953846153846628,0.0005046153846153371
0.737,1.0,8.9447,-3.4833415384615396,-3.605923076923081,-0.08133384615384623,-0.0017892307692308166,0.0005107692307691835
0.738,1.0,8.9447,-3.4831938461538474,-3.6054076923076965,-0.08132461538461545,-0.00178307692307697,0.0005169230769230299
0.739,1.0,8.9447,-3.4830461538461552,-3.6048923076923116,-0.08131538461538469,-0.0017769230769231238,0.0005230769230768763
0.74,1.0,8.9447,-3.4828984615384626,-3.604376923076927,-0.08130615384615392,-0.0017707692307692773,0.0005292307692307226
0.741,1.0,8.9447,-3.4827507692307704,-3.6038615384615427,-0.08129692307692314,-0.001764615384615431,0.000535384615384569
0.742,1.0,8.9447,-3.4826030769230782,-3.6033461538461578,-0.08128769230769238,-0.0017584615384615846,0.0005415384615384154
0.743,1.0,8.9447,-3.4824553846153856,-3.6028307692307733,-0.0812784615384616,-0.0017523076923077383,0.0005476923076922618
0.744,1.0,8.9447,-3.4823076923076934,-3.602315384615389,-0.08126923076923084,-0.0017461538461538918,0.0005538461538461081
0.745,1.0,8.9447,-3.4821600000000013,-3.601800000000004,-0.08126000000000007,-0.0017400000000000455,0.0005599999999999545
0.746,1.0,8.9447,-3.482012307692309,-3.6012846153846194,-0.0812507692307693,-0.001733846153846199,0.0005661538461538009
0.747,1.0,8.9447,-3.4818646153846164,-3.6007692307692345,-0.08124153846153853,-0.0017276923076923528,0.0005723076923076473
0.748,1.0,8.9447,-3.4817169230769243,-3.60025384615385,-0.08123230769230776,-0.0017215384615385063,0.0005784615384614937
0.749,1.0,8.9447,-3.481569230769232,-3.5997384615384656,-0.081223076923077,-0.00171538461538466,0.00058461538461534
0.75,1.0,8.9447,-3.4814215384615395,-3.5992230769230806,-0.08121384615384622,-0.0017092307692308135,0.0005907692307691864
0.751,1.0,8.9447,-3.4812738461538473,-3.598707692307696,-0.08120461538461546,-0.0017030769230769673,0.0005969230769230328
0.752,1.0,8.9447,-3.481126153846155,-3.5981923076923117,-0.08119538461538468,-0.0016969230769231208,0.0006030769230768792
0.753,1.0,8.9447,-3.4809784615384625,-3.5976769230769268,-0.08118615384615391,-0.0016907692307692745,0.0006092307692307256
0.754,1.0,8.9447,-3.4808307692307703,-3.5971615384615423,-0.08117692307692315,-0.001684615384615428,0.0006153846153845719
0.755,1.0,8.9447,-3.480683076923078,-3.596646153846158,-0.08116769230769237,-0.0016784615384615818,0.0006215384615384183
0.756,1.0,8.9447,-3.480535384615386,-3.596130769230773,-0.08115846153846161,-0.0016723076923077355,0.0006276923076922647
0.757,1.0,8.9447,-3.4803876923076933,-3.5956153846153884,-0.08114923076923083,-0.001666153846153889,0.0006338461538461111
0.758,1.0,8.9447,-3.480240000000001,-3.5951000000000035,-0.08114000000000006,-0.0016600000000000425,0.0006399999999999574
0.759,1.0,8.9447,-3.480092307692309,-3.594584615384619,-0.0811307692307693,-0.0016538461538461962,0.0006461538461538037
0.76,1.0,8.9447,-3.4799446153846163,-3.5940692307692346,-0.08112153846153852,-0.00164769230769235,0.0006523076923076502
0.761,1.0,8.9447,-3.479796923076924,-3.5935538461538497,-0.08111230769230776,-0.0016415384615385035,0.0006584615384614965
0.762,1.0,8.9447,-3.479649230769232,-3.593038461538465,-0.08110307692307699,-0.001635384615384657,0.000664615384615343
0.763,1.0,8.9447,-3.4795015384615393,-3.5925230769230807,-0.08109384615384621,-0.0016292307692308107,0.0006707692307691892
0.764,1.0,8.9447,-3.479353846153847,-3.592007692307696,-0.08108461538461545,-0.0016230769230769645,0.0006769230769230357
0.765,1.0,8.9447,-3.479206153846155,-3.5914923076923113,-0.08107538461538467,-0.001616923076923118,0.000683076923076882
0.766,1.0,8.9447,-3.4790584615384623,-3.590976923076927,-0.08106615384615391,-0.0016107692307692717,0.0006892307692307285
0.767,1.0,8.9447,-3.47891076923077,-3.590461538461542,-0.08105692307692314,-0.0016046153846154252,0.0006953846153845747
0.768,1.0,8.9447,-3.478763076923078,-3.5899461538461575,-0.08104769230769236,-0.001598461538461579,0.0007015384615384212
0.769,1.0,8.9447,-3.4786153846153858,-3.5894307692307725,-0.0810384615384616,-0.0015923076923077325,0.0007076923076922675
0.77,1.0,8.9447,-3.478467692307693,-3.588915384615388,-0.08102923076923083,-0.0015861538461538862,0.000713846153846114
0.771,1.0,8.9447,-3.478320000000001,-3.5884000000000036,-0.08102000000000006,-0.0015800000000000397,0.0007199999999999603
0.772,1.0,8.9447,-3.478172307692309,-3.5878846153846187,-0.08101076923076929,-0.0015738461538461934,0.0007261538461538067
0.773,1.0,8.9447,-3.478024615384616,-3.587369230769234,-0.08100153846153853,-0.001567692307692347,0.000732307692307653
0.774,1.0,8.9447,-3.477876923076924,-3.5868538461538497,-0.08099230769230775,-0.0015615384615385007,0.0007384615384614995
0.775,1.0,8.9447,-3.477729230769232,-3.586338461538465,-0.08098307692307698,-0.0015553846153846542,0.0007446153846153458
0.776,1.0,8.9447,-3.477581538461539,-3.5858230769230803,-0.08097384615384622,-0.001549230769230808,0.0007507692307691921
0.777,1.0,8.9447,-3.477433846153847,-3.585307692307696,-0.08096461538461544,-0.0015430769230769617,0.0007569230769230385
0.778,1.0,8.9447,-3.477286153846155,-3.584792307692311,-0.08095538461538468,-0.0015369230769231152,0.0007630769230768849
0.779,1.0,8.9447,-3.4771384615384626,-3.5842769230769265,-0.0809461538461539,-0.0015307692307692687,0.0007692307692307313
0.78,1.0,8.9447,-3.47699076923077,-3.5837615384615416,-0.08093692307692313,-0.0015246153846154224,0.0007753846153845777
0.781,1.0,8.9447,-3.476843076923078,-3.583246153846157,-0.08092769230769237,-0.0015184615384615761,0.000781538461538424
0.782,1.0,8.9447,-3.4766953846153856,-3.5827307692307726,-0.08091846153846159,-0.0015123076923077297,0.0007876923076922704
0.783,1.0,8.9447,-3.476547692307693,-3.5822153846153877,-0.08090923076923083,-0.0015061538461538832,0.0007938461538461168
0.784,1.0,8.9447,-3.476400000000001,-3.581700000000003,-0.08090000000000006,-0.001500000000000037,0.0007999999999999632
0.785,1.0,8.944627272727272,-3.4764727272727267,-3.5819181818181804,-0.08090151515151514,-0.0014939393939394305,0.0008303030303028476
0.786,1.0,8.944554545454546,-3.476545454545454,-3.5821363636363626,-0.0809030303030303,-0.0014878787878788247,0.0008606060606058767
0.787,1.0,8.944481818181817,-3.476618181818181,-3.5823545454545442,-0.08090454545454545,-0.0014818181818182189,0.0008909090909089059
0.788,1.0,8.94440909090909,-3.4766909090909084,-3.582572727272726,-0.08090606060606059,-0.001475757575757613,0.000921212121211935
0.789,1.0,8.944336363636364,-3.476763636363636,-3.582790909090908,-0.08090757575757575,-0.001469696969697007,0.0009515151515149643
0.79,1.0,8.944263636363637,-3.4768363636363633,-3.5830090909090897,-0.0809090909090909,-0.0014636363636364013,0.0009818181818179936
0.791,1.0,8.944190909090908,-3.4769090909090905,-3.5832272727272714,-0.08091060606060606,-0.0014575757575757955,0.0010121212121210227
0.792,1.0,8.944118181818181,-3.4769818181818177,-3.583445454545453,-0.0809121212121212,-0.0014515151515151897,0.0010424242424240519
0.793,1.0,8.944045454545455,-3.477054545454545,-3.583663636363635,-0.08091363636363635,-0.001445454545454584,0.001072727272727081
0.794,1.0,8.943972727272728,-3.477127272727272,-3.583881818181817,-0.08091515151515151,-0.001439393939393978,0.0011030303030301102
0.795,1.0,8.9439,-3.4771999999999994,-3.5840999999999985,-0.08091666666666665,-0.0014333333333333721,0.0011333333333331393
0.796,1.0,8.943827272727273,-3.4772727272727266,-3.5843181818181806,-0.0809181818181818,-0.0014272727272727664,0.0011636363636361685
0.797,1.0,8.943754545454546,-3.477345454545454,-3.5845363636363623,-0.08091969696969696,-0.0014212121212121606,0.0011939393939391979
0.798,1.0,8.943681818181817,-3.477418181818181,-3.584754545454544,-0.08092121212121212,-0.0014151515151515546,0.0012242424242422268
0.799,1.0,8.94360909090909,-3.4774909090909087,-3.584972727272726,-0.08092272727272726,-0.0014090909090909488,0.0012545454545452562
0.8,1.0,8.943536363636364,-3.477563636363636,-3.5851909090909078,-0.08092424242424241,-0.001403030303030343,0.0012848484848482853
0.801,1.0,8.943463636363637,-3.477636363636363,-3.5854090909090894,-0.08092575757575757,-0.0013969696969697372,0.0013151515151513145
0.802,1.0,8.943390909090908,-3.4777090909090904,-3.585627272727271,-0.08092727272727272,-0.0013909090909091314,0.0013454545454543436
0.803,1.0,8.943318181818182,-3.4777818181818176,-3.5858454545454532,-0.08092878787878786,-0.0013848484848485254,0.0013757575757573728
0.804,1.0,8.943245454545455,-3.477854545454545,-3.586063636363635,-0.08093030303030302,-0.0013787878787879196,0.0014060606060604022
0.805,1.0,8.943172727272728,-3.477927272727272,-3.5862818181818166,-0.08093181818181817,-0.0013727272727273138,0.001436363636363431
0.806,1.0,8.9431,-3.4779999999999993,-3.5864999999999987,-0.08093333333333333,-0.001366666666666708,0.0014666666666664605
0.807,1.0,8.943027272727273,-3.4780727272727265,-3.5867181818181804,-0.08093484848484847,-0.001360606060606102,0.0014969696969694894
0.808,1.0,8.942954545454546,-3.4781454545454538,-3.586936363636362,-0.08093636363636363,-0.0013545454545454963,0.0015272727272725188
0.809,1.0,8.942881818181817,-3.4782181818181814,-3.587154545454544,-0.08093787878787878,-0.0013484848484848905,0.001557575757575548
0.81,1.0,8.94280909090909,-3.4782909090909087,-3.587372727272726,-0.08093939393939394,-0.0013424242424242847,0.001587878787878577
0.811,1.0,8.942736363636364,-3.478363636363636,-3.5875909090909075,-0.08094090909090908,-0.001336363636363679,0.0016181818181816062
0.812,1.0,8.942663636363637,-3.478436363636363,-3.587809090909089,-0.08094242424242423,-0.001330303030303073,0.0016484848484846354
0.8130000000000001,1.0,8.942590909090908,-3.4785090909090903,-3.5880272727272713,-0.08094393939393939,-0.0013242424242424671,0.0016787878787876648
0.8140000000000001,1.0,8.942518181818182,-3.4785818181818176,-3.588245454545453,-0.08094545454545453,-0.0013181818181818613,0.0017090909090906937
0.8150000000000001,1.0,8.942445454545455,-3.4786545454545448,-3.5884636363636346,-0.08094696969696968,-0.0013121212121212555,0.001739393939393723
0.8160000000000001,1.0,8.942372727272728,-3.478727272727272,-3.5886818181818168,-0.08094848484848484,-0.0013060606060606495,0.0017696969696967522
0.8170000000000001,1.0,8.9423,-3.4787999999999992,-3.5888999999999984,-0.08095,-0.0013000000000000437,0.0017999999999997814
0.8180000000000001,1.0,8.942227272727273,-3.4788727272727265,-3.58911818181818,-0.08095151515151514,-0.001293939393939438,0.0018303030303028107
0.8190000000000001,1.0,8.942154545454546,-3.478945454545454,-3.589336363636362,-0.08095303030303029,-0.0012878787878788322,0.0018606060606058397
0.8200000000000001,1.0,8.942081818181817,-3.4790181818181813,-3.589554545454544,-0.08095454545454545,-0.0012818181818182264,0.001890909090908869
0.8210000000000001,1.0,8.94200909090909,-3.4790909090909086,-3.5897727272727256,-0.0809560606060606,-0.0012757575757576204,0.001921212121211898
0.8220000000000001,1.0,8.941936363636364,-3.479163636363636,-3.5899909090909072,-0.08095757575757574,-0.0012696969696970146,0.0019515151515149274
0.8230000000000001,1.0,8.941863636363637,-3.479236363636363,-3.5902090909090894,-0.0809590909090909,-0.0012636363636364088,0.0019818181818179563
0.8240000000000001,1.0,8.941790909090908,-3.4793090909090902,-3.590427272727271,-0.08096060606060605,-0.001257575757575803,0.0020121212121209857
0.8250000000000001,1.0,8.941718181818182,-3.4793818181818175,-3.5906454545454527,-0.08096212121212121,-0.001251515151515197,0.002042424242424015
0.8260000000000001,1.0,8.941645454545455,-3.4794545454545447,-3.590863636363635,-0.08096363636363635,-0.0012454545454545912,0.002072727272727044
0.8270000000000001,1.0,8.941572727272728,-3.479527272727272,-3.5910818181818165,-0.0809651515151515,-0.0012393939393939854,0.0021030303030300733
0.8280000000000001,1.0,8.9415,-3.479599999999999,-3.591299999999998,-0.08096666666666666,-0.0012333333333333796,0.0021333333333331023
0.8290000000000001,1.0,8.941427272727273,-3.479672727272727,-3.5915181818181803,-0.08096818181818181,-0.0012272727272727739,0.0021636363636361317
0.8300000000000001,1.0,8.941354545454546,-3.479745454545454,-3.591736363636362,-0.08096969696969696,-0.0012212121212121679,0.0021939393939391606
0.8310000000000001,1.0,8.941281818181817,-3.4798181818181813,-3.5919545454545436,-0.08097121212121211,-0.001215151515151562,0.00222424242424219
0.8320000000000001,1.0,8.94120909090909,-3.4798909090909085,-3.5921727272727253,-0.08097272727272727,-0.0012090909090909563,0.0022545454545452193
0.833,1.0,8.941136363636364,-3.4799636363636357,-3.5923909090909074,-0.08097424242424242,-0.0012030303030303511,0.002284848484848245
0.834,1.0,8.941063636363637,-3.480036363636363,-3.592609090909089,-0.08097575757575756,-0.0011969696969697454,0.002315151515151274
0.835,1.0,8.940990909090909,-3.48010909090909,-3.5928272727272708,-0.08097727272727272,-0.0011909090909091394,0.002345454545454303
0.836,1.0,8.940918181818182,-3.4801818181818174,-3.593045454545453,-0.08097878787878787,-0.0011848484848485336,0.0023757575757573325
0.837,1.0,8.940845454545455,-3.4802545454545446,-3.5932636363636346,-0.08098030303030301,-0.0011787878787879278,0.002406060606060362
0.838,1.0,8.940772727272728,-3.480327272727272,-3.5934818181818162,-0.08098181818181817,-0.0011727272727273218,0.002436363636363391
0.839,1.0,8.9407,-3.4803999999999995,-3.5936999999999983,-0.08098333333333332,-0.001166666666666716,0.00246666666666642
0.84,1.0,8.940627272727273,-3.4804727272727267,-3.59391818181818,-0.08098484848484848,-0.0011606060606061102,0.002496969696969449
0.841,1.0,8.940554545454546,-3.480545454545454,-3.5941363636363617,-0.08098636363636362,-0.0011545454545455044,0.0025272727272724785
0.842,1.0,8.94048181818182,-3.480618181818181,-3.5943545454545434,-0.08098787878787878,-0.0011484848484848986,0.0025575757575755074
0.843,1.0,8.94040909090909,-3.4806909090909084,-3.5945727272727255,-0.08098939393939393,-0.0011424242424242928,0.0025878787878785368
0.844,1.0,8.940336363636364,-3.4807636363636356,-3.594790909090907,-0.08099090909090909,-0.0011363636363636868,0.002618181818181566
0.845,1.0,8.940263636363637,-3.480836363636363,-3.595009090909089,-0.08099242424242423,-0.001130303030303081,0.002648484848484595
0.846,1.0,8.940190909090909,-3.48090909090909,-3.595227272727271,-0.08099393939393938,-0.0011242424242424753,0.0026787878787876244
0.847,1.0,8.940118181818182,-3.4809818181818173,-3.5954454545454526,-0.08099545454545454,-0.0011181818181818693,0.0027090909090906534
0.848,1.0,8.940045454545455,-3.4810545454545445,-3.5956636363636343,-0.08099696969696969,-0.0011121212121212635,0.0027393939393936828
0.849,1.0,8.939972727272728,-3.4811272727272717,-3.595881818181816,-0.08099848484848483,-0.0011060606060606577,0.0027696969696967117
0.85,1.0,8.9399,-3.4811999999999994,-3.596099999999998,-0.08099999999999999,-0.0011000000000000519,0.002799999999999741
0.851,1.0,8.9399,-3.4812738461538455,-3.5961,-0.08100153846153844,-0.0010876923076924125,0.002804615384615345
0.852,1.0,8.9399,-3.4813476923076916,-3.5961,-0.08100307692307691,-0.0010753846153847197,0.00280923076923073
0.853,1.0,8.9399,-3.4814215384615377,-3.5961,-0.08100461538461537,-0.001063076923077027,0.0028138461538461147
0.854,1.0,8.9399,-3.4814953846153838,-3.5961,-0.08100615384615384,-0.0010507692307693342,0.0028184615384614998
0.855,1.0,8.9399,-3.48156923076923,-3.5961,-0.0810076923076923,-0.0010384615384616414,0.0028230769230768843
0.856,1.0,8.9399,-3.4816430769230764,-3.5961,-0.08100923076923076,-0.0010261538461539487,0.0028276923076922694
0.857,1.0,8.9399,-3.4817169230769225,-3.5961,-0.08101076923076922,-0.001013846153846256,0.002832307692307654
0.858,1.0,8.9399,-3.4817907692307686,-3.5961,-0.08101230769230769,-0.0010015384615385632,0.0028369230769230386
0.859,1.0,8.9399,-3.4818646153846147,-3.5961,-0.08101384615384614,-0.0009892307692308706,0.0028415384615384236
0.86,1.0,8.9399,-3.4819384615384608,-3.5961,-0.0810153846153846,-0.0009769230769231777,0.002846153846153808
0.861,1.0,8.9399,-3.482012307692307,-3.5961,-0.08101692307692307,-0.000964615384615485,0.002850769230769193
0.862,1.0,8.9399,-3.482086153846153,-3.5961,-0.08101846153846153,-0.0009523076923077923,0.002855384615384578
0.863,1.0,8.9399,-3.4821599999999995,-3.5961,-0.08102,-0.0009400000000000995,0.002859999999999963
0.864,1.0,8.9399,-3.4822338461538456,-3.5961,-0.08102153846153845,-0.0009276923076924067,0.0028646153846153474
0.865,1.0,8.9399,-3.4823076923076917,-3.5961,-0.08102307692307692,-0.000915384615384714,0.002869230769230732
0.866,1.0,8.9399,-3.4823815384615378,-3.5961,-0.08102461538461538,-0.0009030769230770213,0.002873846153846117
0.867,1.0,8.9399,-3.482455384615384,-3.5961,-0.08102615384615383,-0.0008907692307693286,0.0028784615384615016
0.868,1.0,8.9399,-3.48252923076923,-3.5961,-0.0810276923076923,-0.0008784615384616358,0.0028830769230768867
0.869,1.0,8.9399,-3.4826030769230765,-3.5961,-0.08102923076923076,-0.0008661538461539431,0.0028876923076922713
0.87,1.0,8.9399,-3.4826769230769226,-3.5961,-0.08103076923076923,-0.0008538461538462503,0.0028923076923076563
0.871,1.0,8.9399,-3.4827507692307687,-3.5961,-0.08103230769230768,-0.0008415384615385576,0.002896923076923041
0.872,1.0,8.9399,-3.4828246153846147,-3.5961,-0.08103384615384615,-0.0008292307692308648,0.0029015384615384255
0.873,1.0,8.9399,-3.482898461538461,-3.5961,-0.0810353846153846,-0.000816923076923172,0.0029061538461538105
0.874,1.0,8.9399,-3.482972307692307,-3.5961,-0.08103692307692306,-0.0008046153846154793,0.002910769230769195
0.875,1.0,8.9399,-3.4830461538461535,-3.5961,-0.08103846153846153,-0.0007923076923077865,0.00291538461538458
0.876,1.0,8.9399,-3.4831199999999995,-3.5961,-0.08103999999999999,-0.0007800000000000938,0.0029199999999999647
0.877,1.0,8.9399,-3.4831938461538456,-3.5961,-0.08104153846153846,-0.000767692307692401,0.0029246153846153498
0.878,1.0,8.9399,-3.4832676923076917,-3.5961,-0.08104307692307691,-0.0007553846153847083,0.0029292307692307343
0.879,1.0,8.9399,-3.483341538461538,-3.5961,-0.08104461538461538,-0.0007430769230770155,0.002933846153846119
0.88,1.0,8.9399,-3.483415384615384,-3.5961,-0.08104615384615384,-0.0007307692307693227,0.002938461538461504
0.881,1.0,8.9399,-3.4834892307692304,-3.5961,-0.0810476923076923,-0.00071846153846163,0.0029430769230768886
0.882,1.0,8.9399,-3.4835630769230765,-3.5961,-0.08104923076923076,-0.0007061538461539372,0.0029476923076922736
0.883,1.0,8.9399,-3.4836369230769226,-3.5961,-0.08105076923076922,-0.0006938461538462445,0.002952307692307658
0.884,1.0,8.9399,-3.4837107692307687,-3.5961,-0.08105230769230769,-0.0006815384615385517,0.002956923076923043
0.885,1.0,8.9399,-3.483784615384615,-3.5961,-0.08105384615384614,-0.000669230769230859,0.002961538461538428
0.886,1.0,8.9399,-3.483858461538461,-3.5961,-0.08105538461538461,-0.0006569230769231662,0.0029661538461538124
0.887,1.0,8.9399,-3.483932307692307,-3.5961,-0.08105692307692307,-0.0006446153846154734,0.0029707692307691974
0.888,1.0,8.9399,-3.4840061538461535,-3.5961,-0.08105846153846154,-0.0006323076923077807,0.002975384615384582
0.889,1.0,8.9399,-3.4840799999999996,-3.5961,-0.08106,-0.0006200000000000879,0.002979999999999967
0.89,1.0,8.9399,-3.4841538461538457,-3.5961,-0.08106153846153845,-0.0006076923076923953,0.0029846153846153516
0.891,1.0,8.9399,-3.484227692307692,-3.5961,-0.08106307692307692,-0.0005953846153847025,0.0029892307692307367
0.892,1.0,8.9399,-3.484301538461538,-3.5961,-0.08106461538461537,-0.0005830769230770098,0.0029938461538461213
0.893,1.0,8.9399,-3.484375384615384,-3.5961,-0.08106615384615384,-0.000570769230769317,0.002998461538461506
0.894,1.0,8.9399,-3.4844492307692305,-3.5961,-0.0810676923076923,-0.0005584615384616243,0.003003076923076891
0.895,1.0,8.9399,-3.4845230769230766,-3.5961,-0.08106923076923077,-0.0005461538461539315,0.0030076923076922755
0.896,1.0,8.9399,-3.4845969230769227,-3.5961,-0.08107076923076922,-0.0005338461538462387,0.0030123076923076605
0.897,1.0,8.9399,-3.484670769230769,-3.5961,-0.08107230769230768,-0.000521538461538546,0.003016923076923045
0.898,1.0,8.9399,-3.484744615384615,-3.5961,-0.08107384615384615,-0.0005092307692308532,0.00302153846153843
0.899,1.0,8.9399,-3.484818461538461,-3.5961,-0.0810753846153846,-0.0004969230769231605,0.0030261538461538147
0.9,1.0,8.9399,-3.4848923076923075,-3.5961,-0.08107692307692307,-0.0004846153846154677,0.0030307692307691993
0.901,1.0,8.9399,-3.4849661538461536,-3.5961,-0.08107846153846153,-0.00047230769230777495,0.0030353846153845843
0.902,1.0,8.9399,-3.4850399999999997,-3.5961,-0.08108,-0.0004600000000000823,0.003039999999999969
0.903,1.0,8.9399,-3.485113846153846,-3.5961,-0.08108153846153845,-0.00044769230769238955,0.003044615384615354
0.904,1.0,8.9399,-3.485187692307692,-3.5961,-0.08108307692307692,-0.0004353846153846968,0.0030492307692307386
0.905,1.0,8.9399,-3.485261538461538,-3.5961,-0.08108461538461538,-0.00042307692307700403,0.003053846153846123
0.906,1.0,8.9399,-3.4853353846153845,-3.5961,-0.08108615384615384,-0.0004107692307693113,0.003058461538461508
0.907,1.0,8.9399,-3.4854092307692306,-3.5961,-0.0810876923076923,-0.0003984615384616185,0.0030630769230768928
0.908,1.0,8.9399,-3.4854830769230767,-3.5961,-0.08108923076923076,-0.00038615384615392576,0.003067692307692278
0.909,1.0,8.9399,-3.4855569230769228,-3.5961,-0.08109076923076923,-0.000373846153846233,0.0030723076923076624
0.91,1.0,8.9399,-3.485630769230769,-3.5961,-0.08109230769230769,-0.00036153846153854025,0.0030769230769230474
0.911,1.0,8.9399,-3.485704615384615,-3.5961,-0.08109384615384616,-0.0003492307692308475,0.003081538461538432
0.912,1.0,8.9399,-3.485778461538461,-3.5961,-0.08109538461538461,-0.00033692307692315474,0.0030861538461538166
0.913,1.0,8.9399,-3.4858523076923076,-3.5961,-0.08109692307692307,-0.000324615384615462,0.0030907692307692016
0.914,1.0,8.9399,-3.4859261538461537,-3.5961,-0.08109846153846154,-0.0003123076923077692,0.0030953846153845862
0.915,1.0,8.9399,-3.4859999999999998,-3.5961,-0.08109999999999999,-0.00030000000000007646,0.0030999999999999713
0.916,1.0,8.9399,-3.4859261538461546,-3.5961738461538455,-0.08109692307692311,-0.00027846153846167155,0.0030769230769232196
0.917,1.0,8.9399,-3.4858523076923085,-3.5962476923076916,-0.08109384615384618,-0.0002569230769232093,0.0030538461538462958
0.918,1.0,8.9399,-3.4857784615384624,-3.5963215384615377,-0.08109076923076926,-0.00023538461538474695,0.0030307692307693715
0.919,1.0,8.9399,-3.485704615384616,-3.596395384615384,-0.08108769230769233,-0.00021384615384628463,0.0030076923076924477
0.92,1.0,8.9399,-3.4856307692307698,-3.5964692307692303,-0.08108461538461541,-0.00019230769230782233,0.002984615384615524
0.921,1.0,8.9399,-3.4855569230769237,-3.5965430769230764,-0.08108153846153848,-0.00017076923076936003,0.0029615384615386
0.922,1.0,8.9399,-3.4854830769230776,-3.5966169230769225,-0.08107846153846156,-0.0001492307692308977,0.002938461538461676
0.923,1.0,8.9399,-3.4854092307692315,-3.5966907692307686,-0.08107538461538463,-0.0001276923076924354,0.0029153846153847523
0.924,1.0,8.9399,-3.4853353846153854,-3.5967646153846147,-0.08107230769230772,-0.00010615384615397309,0.0028923076923078285
0.925,1.0,8.9399,-3.485261538461539,-3.596838461538461,-0.0810692307692308,-8.461538461551079e-05,0.002869230769230904
0.926,1.0,8.9399,-3.4851876923076928,-3.5969123076923073,-0.08106615384615387,-6.307692307704849e-05,0.0028461538461539804
0.927,1.0,8.9399,-3.4851138461538467,-3.5969861538461534,-0.08106307692307695,-4.153846153858619e-05,0.0028230769230770565
0.928,1.0,8.9399,-3.4850400000000006,-3.5970599999999995,-0.08106000000000002,-2.000000000012387e-05,0.0028000000000001327
0.929,1.0,8.9399,-3.4849661538461545,-3.5971338461538456,-0.0810569230769231,1.5384615383384564e-06,0.002776923076923209
0.93,1.0,8.9399,-3.4848923076923084,-3.5972076923076917,-0.08105384615384617,2.307692307680078e-05,0.002753846153846285
0.931,1.0,8.9399,-3.484818461538462,-3.597281538461538,-0.08105076923076925,4.461538461526305e-05,0.002730769230769361
0.932,1.0,8.9399,-3.4847446153846158,-3.5973553846153843,-0.08104769230769233,6.615384615372538e-05,0.002707692307692437
0.933,1.0,8.9399,-3.4846707692307697,-3.5974292307692304,-0.08104461538461541,8.76923076921877e-05,0.002684615384615513
0.934,1.0,8.9399,-3.4845969230769236,-3.5975030769230765,-0.08104153846153848,0.00010923076923064997,0.002661538461538589
0.935,1.0,8.9399,-3.4845230769230775,-3.5975769230769226,-0.08103846153846156,0.0001307692307691123,0.0026384615384616654
0.936,1.0,8.9399,-3.4844492307692314,-3.5976507692307687,-0.08103538461538463,0.00015230769230757462,0.0026153846153847415
0.937,1.0,8.9399,-3.4843753846153853,-3.5977246153846147,-0.08103230769230771,0.00017384615384603695,0.0025923076923078177
0.9380000000000001,1.0,8.9399,-3.484301538461539,-3.5977984615384613,-0.08102923076923078,0.00019538461538449922,0.002569230769230894
0.9390000000000001,1.0,8.9399,-3.4842276923076927,-3.5978723076923074,-0.08102615384615387,0.0002169230769229616,0.0025461538461539696
0.9400000000000001,1.0,8.9399,-3.4841538461538466,-3.5979461538461535,-0.08102307692307695,0.00023846153846142387,0.0025230769230770458
0.9410000000000001,1.0,8.9399,-3.4840800000000005,-3.5980199999999996,-0.08102000000000002,0.00025999999999988614,0.002500000000000122
0.9420000000000001,1.0,8.9399,-3.4840061538461544,-3.5980938461538456,-0.0810169230769231,0.0002815384615383485,0.002476923076923198
0.9430000000000001,1.0,8.9399,-3.4839323076923083,-3.5981676923076917,-0.08101384615384617,0.0003030769230768108,0.0024538461538462742
0.9440000000000001,1.0,8.9399,-3.483858461538462,-3.5982415384615383,-0.08101076923076925,0.00032461538461527306,0.0024307692307693504
0.9450000000000001,1.0,8.9399,-3.4837846153846157,-3.5983153846153844,-0.08100769230769232,0.00034615384615373543,0.0024076923076924266
0.9460000000000001,1.0,8.9399,-3.4837107692307696,-3.5983892307692305,-0.0810046153846154,0.0003676923076921977,0.0023846153846155023
0.9470000000000001,1.0,8.9399,-3.4836369230769235,-3.5984630769230765,-0.08100153846153849,0.00038923076923066,0.0023615384615385785
0.9480000000000001,1.0,8.9399,-3.4835630769230774,-3.5985369230769226,-0.08099846153846156,0.00041076923076912235,0.0023384615384616546
0.9490000000000001,1.0,8.9399,-3.4834892307692313,-3.5986107692307687,-0.08099538461538464,0.0004323076923075846,0.0023153846153847308
0.9500000000000001,1.0,8.9399,-3.483415384615385,-3.5986846153846153,-0.08099230769230771,0.000453846153846047,0.002292307692307807
0.9510000000000001,1.0,8.9399,-3.4833415384615387,-3.5987584615384614,-0.08098923076923079,0.0004753846153845093,0.002269230769230883
0.9520000000000001,1.0,8.9399,-3.4832676923076926,-3.5988323076923074,-0.08098615384615386,0.0004969230769229715,0.0022461538461539593
0.9530000000000001,1.0,8.9399,-3.4831938461538465,-3.5989061538461535,-0.08098307692307694,0.0005184615384614339,0.002223076923077035
0.9540000000000001,1.0,8.9399,-3.4831200000000004,-3.5989799999999996,-0.08098000000000001,0.0005399999999998962,0.002200000000000111
0.9550000000000001,1.0,8.9399,-3.4830461538461543,-3.5990538461538457,-0.0809769230769231,0.0005615384615383584,0.0021769230769231873
0.9560000000000001,1.0,8.9399,-3.482972307692308,-3.5991276923076923,-0.08097384615384617,0.0005830769230768208,0.0021538461538462635
0.9570000000000001,1.0,8.9399,-3.4828984615384617,-3.5992015384615383,-0.08097076923076925,0.0006046153846152832,0.0021307692307693396
0.9580000000000001,1.0,8.9399,-3.4828246153846156,-3.5992753846153844,-0.08096769230769232,0.0006261538461537453,0.0021076923076924154
0.9590000000000001,1.0,8.9399,-3.4827507692307695,-3.5993492307692305,-0.0809646153846154,0.0006476923076922077,0.002084615384615492
0.96,1.0,8.9399,-3.4826769230769234,-3.5994230769230766,-0.08096153846153847,0.0006692307692306677,0.0020615384615385703
0.961,1.0,8.9399,-3.4826030769230774,-3.5994969230769227,-0.08095846153846155,0.0006907692307691301,0.0020384615384616465
0.962,1.0,8.9399,-3.4825292307692313,-3.599570769230769,-0.08095538461538464,0.0007123076923075922,0.0020153846153847226
0.963,1.0,8.9399,-3.4824553846153847,-3.5996446153846153,-0.08095230769230771,0.0007338461538460546,0.0019923076923077988
0.964,1.0,8.9399,-3.4823815384615386,-3.5997184615384614,-0.08094923076923079,0.000755384615384517,0.001969230769230875
0.965,1.0,8.9399,-3.4823076923076925,-3.5997923076923075,-0.08094615384615386,0.0007769230769229792,0.0019461538461539509
0.966,1.0,8.9399,-3.4822338461538465,-3.5998661538461536,-0.08094307692307694,0.0007984615384614415,0.001923076923077027
0.967,1.0,8.9399,-3.4821600000000004,-3.5999399999999997,-0.08094000000000001,0.0008199999999999039,0.0019000000000001032
0.968,1.0,8.9399,-3.4820861538461543,-3.600013846153846,-0.08093692307692309,0.0008415384615383661,0.0018769230769231792
0.969,1.0,8.9399,-3.4820123076923077,-3.6000876923076923,-0.08093384615384616,0.0008630769230768285,0.0018538461538462553
0.97,1.0,8.9399,-3.4819384615384616,-3.6001615384615384,-0.08093076923076925,0.0008846153846152908,0.0018307692307693315
0.971,1.0,8.9399,-3.4818646153846156,-3.6002353846153845,-0.08092769230769233,0.0009061538461537532,0.0018076923076924074
0.972,1.0,8.9399,-3.4817907692307695,-3.6003092307692306,-0.0809246153846154,0.0009276923076922154,0.0017846153846154836
0.973,1.0,8.9399,-3.4817169230769234,-3.6003830769230767,-0.08092153846153848,0.0009492307692306778,0.0017615384615385598
0.974,1.0,8.9399,-3.4816430769230773,-3.6004569230769228,-0.08091846153846155,0.0009707692307691401,0.001738461538461636
0.975,1.0,8.9399,-3.4815692307692307,-3.6005307692307693,-0.08091538461538463,0.0009923076923076023,0.0017153846153847119
0.976,1.0,8.9399,-3.4814953846153847,-3.6006046153846154,-0.0809123076923077,0.0010138461538460647,0.001692307692307788
0.977,1.0,8.9399,-3.4814215384615386,-3.6006784615384615,-0.08090923076923077,0.001035384615384527,0.0016692307692308642
0.978,1.0,8.9399,-3.4813476923076925,-3.6007523076923076,-0.08090615384615386,0.0010569230769229892,0.0016461538461539401
0.979,1.0,8.9399,-3.4812738461538464,-3.6008261538461537,-0.08090307692307694,0.0010784615384614516,0.0016230769230770163
0.98,1.0,8.9399,-3.4812000000000003,-3.6008999999999998,-0.08090000000000001,0.001099999999999914,0.0016000000000000925
0.981,1.0,8.9399,-3.4812738461538455,-3.600973846153846,-0.08090615384615382,0.0011123076923076436,0.001630769230769109
0.982,1.0,8.9399,-3.481347692307692,-3.6010476923076924,-0.08091230769230767,0.0011246153846153364,0.001661538461538341
0.983,1.0,8.9399,-3.481421538461538,-3.6011215384615385,-0.08091846153846151,0.0011369230769230291,0.0016923076923075727
0.984,1.0,8.9399,-3.481495384615384,-3.6011953846153846,-0.08092461538461536,0.0011492307692307219,0.0017230769230768047
0.985,1.0,8.9399,-3.4815692307692303,-3.6012692307692307,-0.08093076923076921,0.0011615384615384146,0.0017538461538460365
0.986,1.0,8.9399,-3.4816430769230764,-3.6013430769230768,-0.08093692307692306,0.0011738461538461074,0.0017846153846152683
0.987,1.0,8.9399,-3.4817169230769225,-3.601416923076923,-0.0809430769230769,0.0011861538461538001,0.0018153846153845003
0.988,1.0,8.9399,-3.481790769230769,-3.601490769230769,-0.08094923076923075,0.001198461538461493,0.001846153846153732
0.989,1.0,8.9399,-3.481864615384615,-3.6015646153846155,-0.0809553846153846,0.0012107692307691857,0.001876923076922964
0.99,1.0,8.9399,-3.481938461538461,-3.6016384615384616,-0.08096153846153843,0.0012230769230768784,0.0019076923076921958
0.991,1.0,8.9399,-3.4820123076923073,-3.6017123076923077,-0.08096769230769228,0.0012353846153845712,0.0019384615384614276
0.992,1.0,8.9399,-3.4820861538461534,-3.6017861538461537,-0.08097384615384613,0.001247692307692264,0.0019692307692306594
0.993,1.0,8.9399,-3.4821599999999995,-3.60186,-0.08097999999999998,0.0012599999999999567,0.0019999999999998916
0.994,1.0,8.9399,-3.482233846153846,-3.601933846153846,-0.08098615384615382,0.0012723076923076494,0.0020307692307691234
0.995,1.0,8.9399,-3.482307692307692,-3.6020076923076925,-0.08099230769230767,0.0012846153846153422,0.002061538461538355
0.996,1.0,8.9399,-3.482381538461538,-3.6020815384615386,-0.08099846153846152,0.001296923076923035,0.002092307692307587
0.997,1.0,8.9399,-3.4824553846153843,-3.6021553846153846,-0.08100461538461537,0.0013092307692307275,0.0021230769230768188
0.998,1.0,8.9399,-3.4825292307692304,-3.6022292307692307,-0.0810107692307692,0.0013215384615384205,0.002153846153846051
0.999,1.0,8.9399,-3.4826030769230765,-3.602303076923077,-0.08101692307692306,0.001333846153846113,0.0021846153846152828
1.0,1.0,8.9399,-3.482676923076923,-3.602376923076923,-0.0810230769230769,0.001346153846153806,0.0022153846153845145
1.0010000000000001,1.0,8.9399,-3.482750769230769,-3.602450769230769,-0.08102923076923074,0.0013584615384615,0.00224615384615375
1.002,1.0,8.9399,-3.482824615384615,-3.6025246153846155,-0.08103538461538459,0.0013707692307691913,0.0022769230769229785
1.0030000000000001,1.0,8.9399,-3.4828984615384613,-3.6025984615384616,-0.08104153846153844,0.0013830769230768853,0.002307692307692214
1.004,1.0,8.9399,-3.4829723076923074,-3.6026723076923077,-0.08104769230769229,0.0013953846153845768,0.002338461538461442
1.0050000000000001,1.0,8.9399,-3.4830461538461535,-3.602746153846154,-0.08105384615384613,0.0014076923076922709,0.0023692307692306774
1.006,1.0,8.9399,-3.4831199999999995,-3.60282,-0.08105999999999998,0.0014199999999999623,0.0023999999999999057
1.0070000000000001,1.0,8.9399,-3.483193846153846,-3.602893846153846,-0.08106615384615383,0.0014323076923076564,0.002430769230769141
1.008,1.0,8.9399,-3.483267692307692,-3.602967692307692,-0.08107230769230767,0.0014446153846153478,0.0024615384615383697
1.0090000000000001,1.0,8.9399,-3.4833415384615383,-3.6030415384615386,-0.08107846153846152,0.0014569230769230419,0.002492307692307605
1.01,1.0,8.9399,-3.4834153846153844,-3.6031153846153847,-0.08108461538461537,0.0014692307692307333,0.0025230769230768333
1.0110000000000001,1.0,8.9399,-3.4834892307692304,-3.603189230769231,-0.08109076923076922,0.0014815384615384274,0.0025538461538460685
1.012,1.0,8.9399,-3.4835630769230765,-3.603263076923077,-0.08109692307692305,0.0014938461538461188,0.0025846153846152973
1.0130000000000001,1.0,8.9399,-3.483636923076923,-3.603336923076923,-0.0811030769230769,0.001506153846153813,0.0026153846153845325
1.014,1.0,8.9399,-3.483710769230769,-3.603410769230769,-0.08110923076923075,0.0015184615384615044,0.002646153846153761
1.0150000000000001,1.0,8.9399,-3.4837846153846153,-3.603484615384615,-0.0811153846153846,0.0015307692307691984,0.002676923076922996
1.016,1.0,8.9399,-3.4838584615384613,-3.6035584615384617,-0.08112153846153844,0.0015430769230768899,0.0027076923076922244
1.0170000000000001,1.0,8.9399,-3.4839323076923074,-3.603632307692308,-0.08112769230769229,0.001555384615384584,0.0027384615384614596
1.018,1.0,8.9399,-3.4840061538461535,-3.603706153846154,-0.08113384615384614,0.0015676923076922754,0.0027692307692306884
1.0190000000000001,1.0,8.9399,-3.48408,-3.60378,-0.08113999999999998,0.0015799999999999694,0.0027999999999999236
1.02,1.0,8.9399,-3.484153846153846,-3.603853846153846,-0.08114615384615383,0.0015923076923076607,0.002830769230769152
1.0210000000000001,1.0,8.9399,-3.4842276923076922,-3.603927692307692,-0.08115230769230768,0.001604615384615355,0.0028615384615383876
1.022,1.0,8.9399,-3.4843015384615383,-3.6040015384615383,-0.08115846153846153,0.0016169230769230462,0.002892307692307616
1.0230000000000001,1.0,8.9399,-3.4843753846153844,-3.604075384615385,-0.08116461538461536,0.0016292307692307405,0.002923076923076851
1.024,1.0,8.9399,-3.4844492307692305,-3.604149230769231,-0.08117076923076921,0.0016415384615384317,0.0029538461538460795
1.025,1.0,8.9399,-3.484523076923077,-3.604223076923077,-0.08117692307692306,0.0016538461538461232,0.002984615384615308
1.026,1.0,8.9399,-3.484596923076923,-3.604296923076923,-0.08118307692307691,0.0016661538461538172,0.003015384615384543
1.027,1.0,8.9399,-3.4846707692307692,-3.604370769230769,-0.08118923076923075,0.0016784615384615087,0.003046153846153772
1.028,1.0,8.9399,-3.4847446153846153,-3.6044446153846152,-0.0811953846153846,0.0016907692307692027,0.003076923076923007
1.029,1.0,8.9399,-3.4848184615384614,-3.6045184615384613,-0.08120153846153845,0.0017030769230768942,0.0031076923076922354
1.03,1.0,8.9399,-3.4848923076923075,-3.604592307692308,-0.08120769230769229,0.0017153846153845883,0.003138461538461471
1.031,1.0,8.9399,-3.4849661538461536,-3.604666153846154,-0.08121384615384614,0.0017276923076922797,0.0031692307692306994
