Time,Sensor ID,Accel X (m/s^2),Accel Y (m/s^2),Accel Z (m/s^2),Gyro X (rad/s),Gyro Y (rad/s),Gyro Z (rad/s)
0.0,1.0,9.0692,-4.6304,-1.0965,-0.0822,-0.0004,0.0024
0.001,1.0,9.069272727272727,-4.630181818181818,-1.0965,-0.08219848484848484,-0.00040151515151515163,0.002398484848484848
0.002,1.0,9.069345454545456,-4.6299636363636365,-1.0965,-0.0821969696969697,-0.00040303030303030324,0.0023969696969696965
0.003,1.0,9.069418181818182,-4.629745454545454,-1.0965,-0.08219545454545454,-0.0004045454545454549,0.002395454545454545
0.004,1.0,9.06949090909091,-4.629527272727272,-1.0965,-0.08219393939393939,-0.0004060606060606065,0.002393939393939393
0.005,1.0,9.069563636363636,-4.629309090909091,-1.0965,-0.08219242424242423,-0.0004075757575757581,0.002392424242424242
0.006,1.0,9.069636363636365,-4.629090909090909,-1.0965,-0.08219090909090909,-0.00040909090909090973,0.0023909090909090902
0.007,1.0,9.069709090909091,-4.628872727272727,-1.0965,-0.08218939393939394,-0.00041060606060606134,0.0023893939393939386
0.008,1.0,9.069781818181818,-4.628654545454546,-1.0965,-0.08218787878787878,-0.000412121212121213,0.002387878787878787
0.009000000000000001,1.0,9.069854545454545,-4.6284363636363635,-1.0965,-0.08218636363636363,-0.0004136363636363646,0.0023863636363636353
0.01,1.0,9.069927272727274,-4.628218181818181,-1.0965,-0.08218484848484849,-0.0004151515151515162,0.0023848484848484836
0.011,1.0,9.07,-4.627999999999999,-1.0965,-0.08218333333333333,-0.00041666666666666783,0.002383333333333332
0.012,1.0,9.070072727272727,-4.627781818181818,-1.0965,-0.08218181818181818,-0.0004181818181818195,0.0023818181818181803
0.013000000000000001,1.0,9.070145454545456,-4.627563636363636,-1.0965,-0.08218030303030302,-0.0004196969696969711,0.0023803030303030286
0.014,1.0,9.070218181818182,-4.627345454545454,-1.0965,-0.08217878787878788,-0.0004212121212121227,0.002378787878787877
0.015,1.0,9.07029090909091,-4.6271272727272725,-1.0965,-0.08217727272727272,-0.0004227272727272743,0.0023772727272727257
0.016,1.0,9.070363636363636,-4.62690909090909,-1.0965,-0.08217575757575757,-0.00042424242424242593,0.002375757575757574
0.017,1.0,9.070436363636365,-4.626690909090908,-1.0965,-0.08217424242424243,-0.0004257575757575776,0.0023742424242424224
0.018000000000000002,1.0,9.070509090909091,-4.626472727272727,-1.0965,-0.08217272727272727,-0.0004272727272727292,0.0023727272727272707
0.019,1.0,9.070581818181818,-4.626254545454545,-1.0965,-0.08217121212121212,-0.0004287878787878808,0.002371212121212119
0.02,1.0,9.070654545454547,-4.626036363636363,-1.0965,-0.08216969696969696,-0.0004303030303030324,0.0023696969696969674
0.021,1.0,9.070727272727273,-4.625818181818182,-1.0965,-0.08216818181818182,-0.00043181818181818404,0.0023681818181818157
0.022,1.0,9.0708,-4.6255999999999995,-1.0965,-0.08216666666666667,-0.0004333333333333357,0.002366666666666664
0.023,1.0,9.070872727272727,-4.625381818181817,-1.0965,-0.08216515151515151,-0.0004348484848484873,0.0023651515151515124
0.024,1.0,9.070945454545456,-4.625163636363636,-1.0965,-0.08216363636363636,-0.0004363636363636389,0.002363636363636361
0.025,1.0,9.071018181818182,-4.624945454545454,-1.0965,-0.08216212121212121,-0.00043787878787879053,0.0023621212121212095
0.026000000000000002,1.0,9.071090909090909,-4.624727272727272,-1.0965,-0.08216060606060606,-0.00043939393939394214,0.002360606060606058
0.027,1.0,9.071163636363636,-4.624509090909091,-1.0965,-0.0821590909090909,-0.0004409090909090938,0.002359090909090906
0.028,1.0,9.071236363636364,-4.624290909090909,-1.0965,-0.08215757575757575,-0.0004424242424242454,0.0023575757575757545
0.029,1.0,9.071309090909091,-4.6240727272727264,-1.0965,-0.08215606060606061,-0.000443939393939397,0.002356060606060603
0.03,1.0,9.071381818181818,-4.623854545454544,-1.0965,-0.08215454545454545,-0.00044545454545454863,0.002354545454545451
0.031,1.0,9.071454545454547,-4.623636363636363,-1.0965,-0.0821530303030303,-0.00044696969696970024,0.0023530303030302995
0.032,1.0,9.071527272727273,-4.623418181818181,-1.0965,-0.08215151515151514,-0.0004484848484848519,0.002351515151515148
0.033,1.0,9.0716,-4.623199999999999,-1.0965,-0.08215,-0.0004500000000000035,0.002349999999999996
0.034,1.0,9.071672727272727,-4.622981818181818,-1.0965,-0.08214848484848485,-0.0004515151515151551,0.002348484848484845
0.035,1.0,9.071745454545455,-4.6227636363636355,-1.0965,-0.08214696969696969,-0.00045303030303030673,0.0023469696969696933
0.036000000000000004,1.0,9.071818181818182,-4.622545454545453,-1.0965,-0.08214545454545455,-0.0004545454545454584,0.0023454545454545416
0.037,1.0,9.071890909090909,-4.622327272727272,-1.0965,-0.0821439393939394,-0.00045606060606061,0.00234393939393939
0.038,1.0,9.071963636363636,-4.62210909090909,-1.0965,-0.08214242424242424,-0.0004575757575757616,0.0023424242424242383
0.039,1.0,9.072036363636364,-4.621890909090908,-1.0965,-0.08214090909090908,-0.0004590909090909132,0.0023409090909090866
0.04,1.0,9.072109090909091,-4.621672727272727,-1.0965,-0.08213939393939394,-0.00046060606060606483,0.002339393939393935
0.041,1.0,9.072181818181818,-4.621454545454545,-1.0965,-0.08213787878787879,-0.00046212121212121644,0.0023378787878787833
0.042,1.0,9.072254545454546,-4.6212363636363625,-1.0965,-0.08213636363636363,-0.0004636363636363681,0.0023363636363636316
0.043000000000000003,1.0,9.072327272727273,-4.621018181818181,-1.0965,-0.08213484848484848,-0.0004651515151515197,0.0023348484848484804
0.044,1.0,9.0724,-4.620799999999999,-1.0965,-0.08213333333333334,-0.0004666666666666713,0.0023333333333333288
0.045,1.0,9.072472727272727,-4.620581818181817,-1.0965,-0.08213181818181818,-0.00046818181818182293,0.002331818181818177
0.046,1.0,9.072545454545455,-4.620363636363636,-1.0965,-0.08213030303030303,-0.00046969696969697454,0.0023303030303030254
0.047,1.0,9.072618181818182,-4.620145454545454,-1.0965,-0.08212878787878787,-0.0004712121212121262,0.0023287878787878738
0.048,1.0,9.072690909090909,-4.6199272727272715,-1.0965,-0.08212727272727273,-0.0004727272727272778,0.002327272727272722
0.049,1.0,9.072763636363637,-4.619709090909089,-1.0965,-0.08212575757575757,-0.0004742424242424294,0.0023257575757575704
0.05,1.0,9.072836363636364,-4.619490909090908,-1.0965,-0.08212424242424242,-0.0004757575757575811,0.0023242424242424188
0.051000000000000004,1.0,9.072909090909091,-4.619272727272726,-1.0965,-0.08212272727272728,-0.0004772727272727327,0.002322727272727267
0.052000000000000005,1.0,9.072981818181818,-4.619054545454544,-1.0965,-0.08212121212121212,-0.0004787878787878843,0.0023212121212121154
0.053,1.0,9.073054545454546,-4.618836363636363,-1.0965,-0.08211969696969697,-0.0004803030303030359,0.002319696969696964
0.054,1.0,9.073127272727273,-4.618618181818181,-1.0965,-0.08211818181818181,-0.00048181818181818753,0.0023181818181818126
0.055,1.0,9.0732,-4.6183999999999985,-1.0965,-0.08211666666666667,-0.0004833333333333392,0.002316666666666661
0.056,1.0,9.073272727272727,-4.618181818181817,-1.0965,-0.08211515151515152,-0.0004848484848484908,0.0023151515151515092
0.057,1.0,9.073345454545455,-4.617963636363635,-1.0965,-0.08211363636363636,-0.0004863636363636424,0.0023136363636363576
0.058,1.0,9.073418181818182,-4.617745454545453,-1.0965,-0.0821121212121212,-0.000487878787878794,0.002312121212121206
0.059000000000000004,1.0,9.073490909090909,-4.617527272727272,-1.0965,-0.08211060606060606,-0.0004893939393939456,0.0023106060606060542
0.06,1.0,9.073563636363637,-4.61730909090909,-1.0965,-0.08210909090909091,-0.0004909090909090973,0.0023090909090909026
0.061,1.0,9.073636363636364,-4.617090909090908,-1.0965,-0.08210757575757575,-0.0004924242424242488,0.002307575757575751
0.062,1.0,9.073709090909091,-4.616872727272726,-1.0965,-0.0821060606060606,-0.0004939393939394005,0.0023060606060605997
0.063,1.0,9.073781818181818,-4.616654545454544,-1.0965,-0.08210454545454546,-0.0004954545454545522,0.002304545454545448
0.064,1.0,9.073854545454546,-4.616436363636362,-1.0965,-0.0821030303030303,-0.0004969696969697037,0.0023030303030302963
0.065,1.0,9.073927272727273,-4.616218181818181,-1.0965,-0.08210151515151515,-0.0004984848484848554,0.0023015151515151447
0.066,1.0,9.074,-4.6160000000000005,-1.0964999999999996,-0.08210000000000002,-0.0005000000000000709,0.002300000000000028
0.067,1.0,9.074073846153846,-4.616221538461539,-1.096427692307692,-0.08210153846153848,-0.0005153846153846852,0.002306153846153874
0.068,1.0,9.074147692307692,-4.616443076923078,-1.0963553846153844,-0.08210307692307693,-0.0005307692307692994,0.00231230769230772
0.069,1.0,9.074221538461538,-4.616664615384616,-1.0962830769230767,-0.0821046153846154,-0.0005461538461539136,0.0023184615384615652
0.07,1.0,9.074295384615384,-4.6168861538461545,-1.096210769230769,-0.08210615384615386,-0.0005615384615385279,0.002324615384615411
0.07100000000000001,1.0,9.07436923076923,-4.617107692307693,-1.0961384615384613,-0.08210769230769233,-0.0005769230769231421,0.002330769230769257
0.07200000000000001,1.0,9.074443076923076,-4.617329230769231,-1.0960661538461536,-0.08210923076923078,-0.0005923076923077564,0.0023369230769231027
0.073,1.0,9.074516923076922,-4.61755076923077,-1.0959938461538459,-0.08211076923076924,-0.0006076923076923705,0.002343076923076948
0.074,1.0,9.074590769230769,-4.6177723076923085,-1.0959215384615382,-0.0821123076923077,-0.0006230769230769847,0.002349230769230794
0.075,1.0,9.074664615384615,-4.617993846153847,-1.0958492307692305,-0.08211384615384616,-0.000638461538461599,0.0023553846153846394
0.076,1.0,9.07473846153846,-4.618215384615385,-1.0957769230769228,-0.08211538461538463,-0.0006538461538462132,0.002361538461538485
0.077,1.0,9.074812307692307,-4.618436923076923,-1.095704615384615,-0.08211692307692309,-0.0006692307692308275,0.002367692307692331
0.078,1.0,9.074886153846155,-4.6186584615384625,-1.0956323076923076,-0.08211846153846154,-0.0006846153846154417,0.002373846153846177
0.079,1.0,9.07496,-4.618880000000001,-1.0955599999999999,-0.08212000000000001,-0.000700000000000056,0.0023800000000000223
0.08,1.0,9.075033846153847,-4.619101538461539,-1.0954876923076922,-0.08212153846153847,-0.0007153846153846702,0.002386153846153868
0.081,1.0,9.075107692307693,-4.619323076923077,-1.0954153846153845,-0.08212307692307694,-0.0007307692307692845,0.002392307692307714
0.082,1.0,9.075181538461539,-4.619544615384616,-1.0953430769230768,-0.0821246153846154,-0.0007461538461538987,0.0023984615384615594
0.083,1.0,9.075255384615385,-4.619766153846154,-1.095270769230769,-0.08212615384615385,-0.000761538461538513,0.002404615384615405
0.084,1.0,9.075329230769231,-4.619987692307693,-1.0951984615384613,-0.08212769230769232,-0.0007769230769231273,0.002410769230769251
0.085,1.0,9.075403076923077,-4.620209230769231,-1.0951261538461536,-0.08212923076923077,-0.0007923076923077415,0.0024169230769230964
0.08600000000000001,1.0,9.075476923076923,-4.62043076923077,-1.095053846153846,-0.08213076923076924,-0.0008076923076923558,0.0024230769230769423
0.08700000000000001,1.0,9.07555076923077,-4.620652307692308,-1.0949815384615382,-0.0821323076923077,-0.00082307692307697,0.002429230769230788
0.088,1.0,9.075624615384616,-4.620873846153846,-1.0949092307692305,-0.08213384615384615,-0.0008384615384615841,0.0024353846153846335
0.089,1.0,9.075698461538462,-4.621095384615385,-1.0948369230769228,-0.08213538461538462,-0.0008538461538461983,0.0024415384615384794
0.09,1.0,9.075772307692308,-4.6213169230769235,-1.0947646153846153,-0.08213692307692308,-0.0008692307692308126,0.002447692307692325
0.091,1.0,9.075846153846154,-4.621538461538462,-1.0946923076923076,-0.08213846153846155,-0.0008846153846154268,0.0024538461538461706
0.092,1.0,9.07592,-4.62176,-1.09462,-0.08214,-0.0009000000000000411,0.0024600000000000164
0.093,1.0,9.075993846153846,-4.621981538461538,-1.0945476923076922,-0.08214153846153847,-0.0009153846153846553,0.0024661538461538623
0.094,1.0,9.076067692307692,-4.6222030769230775,-1.0944753846153845,-0.08214307692307693,-0.0009307692307692696,0.0024723076923077077
0.095,1.0,9.076141538461538,-4.622424615384616,-1.0944030769230768,-0.08214461538461539,-0.0009461538461538839,0.0024784615384615535
0.096,1.0,9.076215384615384,-4.622646153846154,-1.094330769230769,-0.08214615384615385,-0.000961538461538498,0.0024846153846153993
0.097,1.0,9.07628923076923,-4.622867692307692,-1.0942584615384614,-0.08214769230769231,-0.0009769230769231124,0.002490769230769245
0.098,1.0,9.076363076923077,-4.623089230769231,-1.0941861538461537,-0.08214923076923078,-0.0009923076923077266,0.0024969230769230906
0.099,1.0,9.076436923076923,-4.62331076923077,-1.094113846153846,-0.08215076923076924,-0.001007692307692341,0.0025030769230769364
0.1,1.0,9.076510769230769,-4.623532307692308,-1.0940415384615383,-0.08215230769230769,-0.001023076923076955,0.0025092307692307823
0.101,1.0,9.076584615384615,-4.623753846153846,-1.0939692307692308,-0.08215384615384616,-0.0010384615384615692,0.0025153846153846277
0.10200000000000001,1.0,9.076658461538461,-4.623975384615385,-1.093896923076923,-0.08215538461538462,-0.0010538461538461836,0.0025215384615384735
0.10300000000000001,1.0,9.076732307692307,-4.624196923076923,-1.0938246153846154,-0.08215692307692309,-0.001069230769230798,0.0025276923076923193
0.10400000000000001,1.0,9.076806153846153,-4.624418461538462,-1.0937523076923077,-0.08215846153846154,-0.0010846153846154121,0.0025338461538461647
0.105,1.0,9.07688,-4.62464,-1.09368,-0.08216,-0.0011000000000000263,0.0025400000000000106
0.106,1.0,9.076953846153845,-4.624861538461539,-1.0936076923076923,-0.08216153846153847,-0.0011153846153846405,0.0025461538461538564
0.107,1.0,9.077027692307691,-4.625083076923077,-1.0935353846153846,-0.08216307692307692,-0.0011307692307692546,0.002552307692307702
0.108,1.0,9.077101538461537,-4.625304615384615,-1.0934630769230769,-0.08216461538461539,-0.0011461538461538688,0.0025584615384615476
0.109,1.0,9.077175384615384,-4.625526153846154,-1.0933907692307692,-0.08216615384615385,-0.0011615384615384831,0.0025646153846153935
0.11,1.0,9.07724923076923,-4.625747692307693,-1.0933184615384615,-0.0821676923076923,-0.0011769230769230975,0.0025707692307692393
0.111,1.0,9.077323076923076,-4.625969230769231,-1.0932461538461538,-0.08216923076923077,-0.0011923076923077117,0.0025769230769230847
0.112,1.0,9.077396923076922,-4.626190769230769,-1.093173846153846,-0.08217076923076923,-0.0012076923076923258,0.0025830769230769306
0.113,1.0,9.077470769230768,-4.626412307692307,-1.0931015384615386,-0.0821723076923077,-0.0012230769230769402,0.002589230769230776
0.114,1.0,9.077544615384616,-4.6266338461538465,-1.0930292307692309,-0.08217384615384615,-0.0012384615384615546,0.002595384615384622
0.115,1.0,9.077618461538462,-4.626855384615385,-1.0929569230769232,-0.08217538461538461,-0.0012538461538461687,0.0026015384615384676
0.116,1.0,9.077692307692308,-4.627076923076923,-1.0928846153846155,-0.08217692307692308,-0.001269230769230783,0.0026076923076923135
0.117,1.0,9.077766153846154,-4.627298461538461,-1.0928123076923077,-0.08217846153846153,-0.001284615384615397,0.002613846153846159
0.11800000000000001,1.0,9.07784,-4.62752,-1.09274,-0.08218,-0.0013000000000000114,0.0026200000000000047
0.11900000000000001,1.0,9.077913846153846,-4.627741538461539,-1.0926676923076923,-0.08218153846153846,-0.0013153846153846258,0.0026261538461538505
0.12,1.0,9.077987692307692,-4.627963076923077,-1.0925953846153846,-0.08218307692307691,-0.0013307692307692397,0.002632307692307696
0.121,1.0,9.078061538461538,-4.628184615384615,-1.092523076923077,-0.08218461538461538,-0.0013461538461538541,0.0026384615384615418
0.122,1.0,9.078135384615384,-4.628406153846154,-1.0924507692307692,-0.08218615384615384,-0.0013615384615384683,0.0026446153846153876
0.123,1.0,9.07820923076923,-4.628627692307692,-1.0923784615384615,-0.08218769230769231,-0.0013769230769230824,0.002650769230769233
0.124,1.0,9.078283076923077,-4.628849230769231,-1.0923061538461538,-0.08218923076923076,-0.0013923076923076968,0.002656923076923079
0.125,1.0,9.078356923076923,-4.629070769230769,-1.0922338461538463,-0.08219076923076923,-0.0014076923076923112,0.0026630769230769247
0.126,1.0,9.078430769230769,-4.629292307692308,-1.0921615384615386,-0.08219230769230769,-0.0014230769230769253,0.00266923076923077
0.127,1.0,9.078504615384615,-4.629513846153846,-1.092089230769231,-0.08219384615384615,-0.0014384615384615395,0.002675384615384616
0.128,1.0,9.078578461538461,-4.629735384615384,-1.0920169230769232,-0.08219538461538461,-0.0014538461538461537,0.0026815384615384618
0.129,1.0,9.078652307692307,-4.629956923076923,-1.0919446153846155,-0.08219692307692307,-0.001469230769230768,0.0026876923076923076
0.13,1.0,9.078726153846153,-4.630178461538462,-1.0918723076923078,-0.08219846153846154,-0.0014846153846153824,0.002693846153846153
0.131,1.0,9.0788,-4.6304,-1.0918,-0.0822,-0.0014999999999999966,0.002699999999999999
0.132,1.0,9.078726153846153,-4.630473846153846,-1.0918723076923078,-0.08219538461538461,-0.001493846153846155,0.0027030769230769226
0.133,1.0,9.078652307692307,-4.630547692307692,-1.0919446153846155,-0.08219076923076922,-0.0014876923076923086,0.002706153846153846
0.134,1.0,9.078578461538461,-4.630621538461538,-1.0920169230769232,-0.08218615384615384,-0.0014815384615384623,0.002709230769230769
0.135,1.0,9.078504615384615,-4.630695384615384,-1.092089230769231,-0.08218153846153846,-0.0014753846153846158,0.0027123076923076922
0.136,1.0,9.078430769230769,-4.63076923076923,-1.0921615384615386,-0.08217692307692308,-0.0014692307692307695,0.002715384615384615
0.137,1.0,9.078356923076923,-4.630843076923076,-1.0922338461538463,-0.08217230769230768,-0.001463076923076923,0.0027184615384615385
0.138,1.0,9.078283076923077,-4.630916923076923,-1.092306153846154,-0.0821676923076923,-0.0014569230769230768,0.002721538461538462
0.139,1.0,9.07820923076923,-4.6309907692307695,-1.0923784615384617,-0.08216307692307692,-0.0014507692307692303,0.002724615384615385
0.14,1.0,9.078135384615384,-4.631064615384616,-1.0924507692307692,-0.08215846153846153,-0.001444615384615384,0.002727692307692308
0.14100000000000001,1.0,9.078061538461538,-4.631138461538462,-1.092523076923077,-0.08215384615384615,-0.0014384615384615378,0.002730769230769231
0.14200000000000002,1.0,9.077987692307692,-4.631212307692308,-1.0925953846153846,-0.08214923076923077,-0.0014323076923076913,0.0027338461538461544
0.14300000000000002,1.0,9.077913846153846,-4.631286153846154,-1.0926676923076923,-0.08214461538461539,-0.0014261538461538448,0.0027369230769230778
0.14400000000000002,1.0,9.07784,-4.63136,-1.09274,-0.08213999999999999,-0.0014199999999999985,0.0027400000000000007
0.145,1.0,9.077766153846154,-4.631433846153846,-1.0928123076923077,-0.08213538461538461,-0.0014138461538461523,0.002743076923076924
0.146,1.0,9.077692307692308,-4.631507692307692,-1.0928846153846155,-0.08213076923076923,-0.001407692307692306,0.002746153846153847
0.147,1.0,9.07761846153846,-4.631581538461538,-1.0929569230769232,-0.08212615384615383,-0.0014015384615384595,0.0027492307692307703
0.148,1.0,9.077544615384614,-4.631655384615384,-1.0930292307692309,-0.08212153846153845,-0.0013953846153846132,0.0027523076923076937
0.149,1.0,9.077470769230768,-4.63172923076923,-1.0931015384615386,-0.08211692307692307,-0.0013892307692307667,0.0027553846153846166
0.15,1.0,9.077396923076922,-4.6318030769230765,-1.0931738461538463,-0.08211230769230769,-0.0013830769230769205,0.00275846153846154
0.151,1.0,9.077323076923076,-4.6318769230769234,-1.093246153846154,-0.0821076923076923,-0.0013769230769230742,0.002761538461538463
0.152,1.0,9.07724923076923,-4.6319507692307695,-1.0933184615384617,-0.08210307692307692,-0.0013707692307692277,0.002764615384615386
0.153,1.0,9.077175384615384,-4.632024615384616,-1.0933907692307694,-0.08209846153846154,-0.0013646153846153812,0.0027676923076923095
0.154,1.0,9.077101538461537,-4.632098461538462,-1.093463076923077,-0.08209384615384614,-0.001358461538461535,0.0027707692307692325
0.155,1.0,9.077027692307691,-4.632172307692308,-1.0935353846153848,-0.08208923076923076,-0.0013523076923076887,0.002773846153846156
0.156,1.0,9.076953846153845,-4.632246153846154,-1.0936076923076925,-0.08208461538461538,-0.0013461538461538422,0.0027769230769230787
0.157,1.0,9.07688,-4.63232,-1.0936800000000002,-0.08208,-0.001339999999999996,0.002780000000000002
0.158,1.0,9.076806153846153,-4.632393846153846,-1.093752307692308,-0.0820753846153846,-0.0013338461538461494,0.0027830769230769254
0.159,1.0,9.076732307692307,-4.632467692307692,-1.0938246153846156,-0.08207076923076922,-0.0013276923076923032,0.0027861538461538484
0.16,1.0,9.076658461538461,-4.632541538461538,-1.093896923076923,-0.08206615384615384,-0.0013215384615384567,0.0027892307692307717
0.161,1.0,9.076584615384615,-4.632615384615384,-1.0939692307692308,-0.08206153846153845,-0.0013153846153846104,0.0027923076923076946
0.162,1.0,9.076510769230769,-4.6326892307692304,-1.0940415384615385,-0.08205692307692307,-0.001309230769230764,0.002795384615384618
0.163,1.0,9.076436923076923,-4.632763076923077,-1.0941138461538462,-0.08205230769230769,-0.0013030769230769177,0.0027984615384615413
0.164,1.0,9.076363076923077,-4.6328369230769235,-1.094186153846154,-0.08204769230769231,-0.0012969230769230712,0.0028015384615384642
0.165,1.0,9.07628923076923,-4.63291076923077,-1.0942584615384616,-0.08204307692307691,-0.001290769230769225,0.0028046153846153876
0.166,1.0,9.076215384615384,-4.632984615384616,-1.0943307692307693,-0.08203846153846153,-0.0012846153846153784,0.002807692307692311
0.167,1.0,9.076141538461538,-4.633058461538462,-1.094403076923077,-0.08203384615384615,-0.0012784615384615321,0.002810769230769234
0.168,1.0,9.076067692307692,-4.633132307692308,-1.0944753846153847,-0.08202923076923076,-0.0012723076923076857,0.0028138461538461572
0.169,1.0,9.075993846153846,-4.633206153846154,-1.0945476923076924,-0.08202461538461538,-0.0012661538461538394,0.00281692307692308
0.17,1.0,9.07592,-4.63328,-1.0946200000000001,-0.08202,-0.001259999999999993,0.0028200000000000035
0.171,1.0,9.075846153846154,-4.633353846153846,-1.0946923076923079,-0.08201538461538461,-0.0012538461538461466,0.002823076923076927
0.17200000000000001,1.0,9.075772307692308,-4.633427692307692,-1.0947646153846156,-0.08201076923076922,-0.0012476923076923001,0.0028261538461538498
0.17300000000000001,1.0,9.075698461538462,-4.633501538461538,-1.0948369230769233,-0.08200615384615384,-0.0012415384615384539,0.002829230769230773
0.17400000000000002,1.0,9.075624615384616,-4.633575384615384,-1.094909230769231,-0.08200153846153846,-0.0012353846153846074,0.002832307692307696
0.17500000000000002,1.0,9.07555076923077,-4.6336492307692305,-1.0949815384615387,-0.08199692307692306,-0.0012292307692307611,0.0028353846153846194
0.176,1.0,9.075476923076923,-4.6337230769230775,-1.0950538461538464,-0.08199230769230768,-0.0012230769230769148,0.0028384615384615423
0.177,1.0,9.075403076923077,-4.633796923076924,-1.095126153846154,-0.0819876923076923,-0.0012169230769230686,0.0028415384615384657
0.178,1.0,9.07532923076923,-4.63387076923077,-1.0951984615384618,-0.08198307692307692,-0.001210769230769222,0.002844615384615389
0.179,1.0,9.075255384615383,-4.633944615384616,-1.0952707692307695,-0.08197846153846153,-0.0012046153846153758,0.002847692307692312
0.18,1.0,9.075181538461537,-4.634018461538462,-1.095343076923077,-0.08197384615384615,-0.0011984615384615293,0.0028507692307692353
0.181,1.0,9.075107692307691,-4.634092307692308,-1.0954153846153847,-0.08196923076923077,-0.001192307692307683,0.002853846153846158
0.182,1.0,9.075033846153845,-4.634166153846154,-1.0954876923076924,-0.08196461538461537,-0.0011861538461538366,0.0028569230769230815
0.183,1.0,9.074959999999999,-4.63424,-1.09556,-0.08195999999999999,-0.0011799999999999903,0.002860000000000005
0.184,1.0,9.074886153846153,-4.634313846153846,-1.0956323076923078,-0.08195538461538461,-0.0011738461538461438,0.002863076923076928
0.185,1.0,9.074812307692307,-4.634387692307692,-1.0957046153846155,-0.08195076923076922,-0.0011676923076922975,0.002866153846153851
0.186,1.0,9.07473846153846,-4.634461538461538,-1.0957769230769232,-0.08194615384615384,-0.0011615384615384513,0.002869230769230774
0.187,1.0,9.074664615384615,-4.6345353846153845,-1.095849230769231,-0.08194153846153845,-0.0011553846153846048,0.0028723076923076974
0.188,1.0,9.074590769230769,-4.6346092307692315,-1.0959215384615386,-0.08193692307692307,-0.0011492307692307583,0.002875384615384621
0.189,1.0,9.074516923076922,-4.634683076923078,-1.0959938461538463,-0.08193230769230768,-0.001143076923076912,0.0028784615384615437
0.19,1.0,9.074443076923076,-4.634756923076924,-1.096066153846154,-0.0819276923076923,-0.0011369230769230658,0.002881538461538467
0.191,1.0,9.07436923076923,-4.63483076923077,-1.0961384615384617,-0.08192307692307692,-0.0011307692307692193,0.00288461538461539
0.192,1.0,9.074295384615384,-4.634904615384616,-1.0962107692307694,-0.08191846153846152,-0.0011246153846153728,0.0028876923076923133
0.193,1.0,9.074221538461538,-4.634978461538462,-1.0962830769230771,-0.08191384615384614,-0.0011184615384615265,0.0028907692307692367
0.194,1.0,9.074147692307692,-4.635052307692308,-1.0963553846153848,-0.08190923076923076,-0.0011123076923076802,0.0028938461538461596
0.195,1.0,9.074073846153846,-4.635126153846154,-1.0964276923076925,-0.08190461538461538,-0.0011061538461538338,0.002896923076923083
0.196,1.0,9.074,-4.6352,-1.0965000000000003,-0.0819,-0.0010999999999999907,0.0029000000000000124
0.197,1.0,9.073854545454545,-4.6351272727272725,-1.096645454545455,-0.08189848484848485,-0.0010954545454545364,0.002906060606060618
0.198,1.0,9.073709090909091,-4.635054545454546,-1.0967909090909094,-0.08189696969696969,-0.001090909090909082,0.002912121212121224
0.199,1.0,9.073563636363636,-4.634981818181818,-1.096936363636364,-0.08189545454545455,-0.0010863636363636275,0.0029181818181818297
0.2,1.0,9.073418181818182,-4.634909090909091,-1.0970818181818185,-0.0818939393939394,-0.0010818181818181732,0.0029242424242424355
0.201,1.0,9.073272727272727,-4.634836363636364,-1.097227272727273,-0.08189242424242424,-0.0010772727272727188,0.0029303030303030413
0.202,1.0,9.073127272727271,-4.634763636363636,-1.0973727272727276,-0.08189090909090908,-0.0010727272727272645,0.002936363636363647
0.203,1.0,9.072981818181818,-4.634690909090909,-1.097518181818182,-0.08188939393939394,-0.0010681818181818101,0.0029424242424242533
0.20400000000000001,1.0,9.072836363636362,-4.6346181818181815,-1.0976636363636367,-0.08188787878787879,-0.0010636363636363558,0.002948484848484859
0.20500000000000002,1.0,9.072690909090909,-4.634545454545455,-1.0978090909090912,-0.08188636363636363,-0.0010590909090909012,0.002954545454545465
0.20600000000000002,1.0,9.072545454545454,-4.634472727272727,-1.0979545454545456,-0.08188484848484848,-0.001054545454545447,0.0029606060606060707
0.20700000000000002,1.0,9.0724,-4.6344,-1.0981000000000003,-0.08188333333333334,-0.0010499999999999926,0.0029666666666666765
0.20800000000000002,1.0,9.072254545454545,-4.634327272727273,-1.0982454545454547,-0.08188181818181818,-0.0010454545454545382,0.0029727272727272823
0.209,1.0,9.072109090909091,-4.634254545454546,-1.0983909090909094,-0.08188030303030303,-0.0010409090909090839,0.002978787878787888
0.21,1.0,9.071963636363636,-4.634181818181818,-1.0985363636363639,-0.08187878787878787,-0.0010363636363636295,0.002984848484848494
0.211,1.0,9.07181818181818,-4.6341090909090905,-1.0986818181818185,-0.08187727272727273,-0.0010318181818181752,0.0029909090909090996
0.212,1.0,9.071672727272727,-4.634036363636364,-1.098827272727273,-0.08187575757575757,-0.0010272727272727209,0.0029969696969697054
0.213,1.0,9.071527272727272,-4.633963636363636,-1.0989727272727274,-0.08187424242424242,-0.0010227272727272665,0.003003030303030311
0.214,1.0,9.071381818181818,-4.633890909090909,-1.099118181818182,-0.08187272727272726,-0.001018181818181812,0.003009090909090917
0.215,1.0,9.071236363636363,-4.633818181818182,-1.0992636363636366,-0.08187121212121212,-0.0010136363636363576,0.003015151515151523
0.216,1.0,9.071090909090909,-4.633745454545455,-1.0994090909090912,-0.08186969696969697,-0.0010090909090909033,0.003021212121212129
0.217,1.0,9.070945454545454,-4.633672727272727,-1.0995545454545457,-0.08186818181818181,-0.001004545454545449,0.0030272727272727348
0.218,1.0,9.0708,-4.6336,-1.0997000000000001,-0.08186666666666667,-0.0009999999999999946,0.0030333333333333406
0.219,1.0,9.070654545454545,-4.633527272727273,-1.0998454545454548,-0.08186515151515152,-0.0009954545454545403,0.0030393939393939464
0.22,1.0,9.07050909090909,-4.633454545454545,-1.0999909090909092,-0.08186363636363636,-0.0009909090909090857,0.003045454545454552
0.221,1.0,9.070363636363636,-4.633381818181818,-1.100136363636364,-0.0818621212121212,-0.0009863636363636314,0.003051515151515158
0.222,1.0,9.07021818181818,-4.633309090909091,-1.1002818181818184,-0.08186060606060606,-0.000981818181818177,0.0030575757575757637
0.223,1.0,9.070072727272727,-4.633236363636364,-1.100427272727273,-0.08185909090909091,-0.0009772727272727227,0.00306363636363637
0.224,1.0,9.069927272727272,-4.633163636363636,-1.1005727272727275,-0.08185757575757575,-0.0009727272727272683,0.0030696969696969757
0.225,1.0,9.069781818181818,-4.633090909090909,-1.100718181818182,-0.0818560606060606,-0.0009681818181818139,0.0030757575757575815
0.226,1.0,9.069636363636363,-4.633018181818182,-1.1008636363636366,-0.08185454545454546,-0.0009636363636363596,0.0030818181818181873
0.227,1.0,9.06949090909091,-4.632945454545455,-1.101009090909091,-0.0818530303030303,-0.0009590909090909051,0.003087878787878793
0.228,1.0,9.069345454545454,-4.632872727272727,-1.1011545454545457,-0.08185151515151515,-0.0009545454545454508,0.003093939393939399
0.229,1.0,9.069199999999999,-4.6328,-1.1013000000000002,-0.08184999999999999,-0.0009499999999999964,0.0031000000000000047
0.23,1.0,9.069054545454545,-4.632727272727273,-1.1014454545454546,-0.08184848484848485,-0.0009454545454545421,0.0031060606060606104
0.231,1.0,9.06890909090909,-4.632654545454545,-1.1015909090909093,-0.0818469696969697,-0.0009409090909090876,0.0031121212121212162
0.232,1.0,9.068763636363636,-4.632581818181818,-1.1017363636363637,-0.08184545454545454,-0.0009363636363636333,0.0031181818181818225
0.233,1.0,9.06861818181818,-4.632509090909091,-1.1018818181818184,-0.08184393939393939,-0.0009318181818181788,0.0031242424242424282
0.234,1.0,9.068472727272727,-4.632436363636364,-1.1020272727272729,-0.08184242424242424,-0.0009272727272727245,0.003130303030303034
0.23500000000000001,1.0,9.068327272727272,-4.632363636363636,-1.1021727272727275,-0.08184090909090909,-0.0009227272727272702,0.00313636363636364
0.23600000000000002,1.0,9.068181818181818,-4.6322909090909095,-1.102318181818182,-0.08183939393939393,-0.0009181818181818158,0.0031424242424242456
0.23700000000000002,1.0,9.068036363636363,-4.632218181818182,-1.1024636363636364,-0.08183787878787879,-0.0009136363636363614,0.0031484848484848514
0.23800000000000002,1.0,9.067890909090908,-4.632145454545454,-1.102609090909091,-0.08183636363636364,-0.000909090909090907,0.003154545454545457
0.23900000000000002,1.0,9.067745454545454,-4.632072727272727,-1.1027545454545455,-0.08183484848484848,-0.0009045454545454526,0.003160606060606063
0.24,1.0,9.067599999999999,-4.632,-1.1029000000000002,-0.08183333333333333,-0.0008999999999999983,0.0031666666666666688
0.241,1.0,9.067454545454545,-4.631927272727273,-1.1030454545454547,-0.08183181818181819,-0.000895454545454544,0.0031727272727272745
0.242,1.0,9.06730909090909,-4.631854545454545,-1.103190909090909,-0.08183030303030303,-0.0008909090909090896,0.0031787878787878803
0.243,1.0,9.067163636363636,-4.6317818181818184,-1.1033363636363638,-0.08182878787878788,-0.0008863636363636352,0.0031848484848484866
0.244,1.0,9.067018181818181,-4.631709090909091,-1.1034818181818182,-0.08182727272727272,-0.0008818181818181809,0.0031909090909090923
0.245,1.0,9.066872727272727,-4.631636363636364,-1.103627272727273,-0.08182575757575758,-0.0008772727272727265,0.003196969696969698
0.246,1.0,9.066727272727272,-4.631563636363636,-1.1037727272727273,-0.08182424242424242,-0.0008727272727272721,0.003203030303030304
0.247,1.0,9.066581818181817,-4.631490909090909,-1.1039181818181818,-0.08182272727272727,-0.0008681818181818177,0.0032090909090909097
0.248,1.0,9.066436363636363,-4.631418181818182,-1.1040636363636365,-0.08182121212121211,-0.0008636363636363633,0.0032151515151515155
0.249,1.0,9.066290909090908,-4.631345454545454,-1.104209090909091,-0.08181969696969697,-0.000859090909090909,0.0032212121212121213
0.25,1.0,9.066145454545454,-4.631272727272727,-1.1043545454545456,-0.08181818181818182,-0.0008545454545454546,0.003227272727272727
0.251,1.0,9.065999999999999,-4.6312,-1.1045,-0.08181666666666666,-0.0008500000000000003,0.003233333333333333
0.252,1.0,9.065854545454545,-4.631127272727273,-1.1046454545454547,-0.08181515151515151,-0.0008454545454545458,0.0032393939393939386
0.253,1.0,9.06570909090909,-4.631054545454545,-1.1047909090909092,-0.08181363636363637,-0.0008409090909090915,0.003245454545454545
0.254,1.0,9.065563636363635,-4.630981818181818,-1.1049363636363636,-0.08181212121212121,-0.000836363636363637,0.0032515151515151506
0.255,1.0,9.065418181818181,-4.630909090909091,-1.1050818181818183,-0.08181060606060606,-0.0008318181818181827,0.0032575757575757564
0.256,1.0,9.065272727272726,-4.630836363636363,-1.1052272727272727,-0.0818090909090909,-0.0008272727272727284,0.0032636363636363622
0.257,1.0,9.065127272727272,-4.630763636363636,-1.1053727272727274,-0.08180757575757576,-0.000822727272727274,0.003269696969696968
0.258,1.0,9.064981818181817,-4.630690909090909,-1.1055181818181818,-0.0818060606060606,-0.0008181818181818196,0.003275757575757574
0.259,1.0,9.064836363636363,-4.630618181818182,-1.1056636363636363,-0.08180454545454545,-0.0008136363636363651,0.0032818181818181796
0.26,1.0,9.064690909090908,-4.630545454545454,-1.105809090909091,-0.08180303030303031,-0.0008090909090909108,0.003287878787878786
0.261,1.0,9.064545454545454,-4.6304727272727275,-1.1059545454545454,-0.08180151515151515,-0.0008045454545454564,0.0032939393939393916
0.262,1.0,9.0644,-4.6304,-1.1061,-0.0818,-0.0008000000000000021,0.0032999999999999974
0.263,1.0,9.064547692307691,-4.630252307692308,-1.106026153846154,-0.08180461538461538,-0.0008046153846153828,0.0032938461538461563
0.264,1.0,9.064695384615383,-4.6301046153846155,-1.105952307692308,-0.08180923076923076,-0.0008092307692307676,0.00328769230769231
0.265,1.0,9.064843076923076,-4.629956923076923,-1.1058784615384616,-0.08181384615384615,-0.0008138461538461523,0.0032815384615384638
0.266,1.0,9.064990769230768,-4.62980923076923,-1.1058046153846155,-0.08181846153846153,-0.0008184615384615371,0.003275384615384617
0.267,1.0,9.06513846153846,-4.629661538461538,-1.1057307692307694,-0.08182307692307692,-0.0008230769230769219,0.003269230769230771
0.268,1.0,9.065286153846152,-4.629513846153846,-1.105656923076923,-0.08182769230769231,-0.0008276923076923066,0.0032630769230769245
0.269,1.0,9.065433846153846,-4.629366153846154,-1.105583076923077,-0.08183230769230769,-0.0008323076923076914,0.0032569230769230783
0.27,1.0,9.065581538461538,-4.6292184615384615,-1.105509230769231,-0.08183692307692307,-0.0008369230769230762,0.0032507692307692316
0.271,1.0,9.06572923076923,-4.629070769230769,-1.1054353846153846,-0.08184153846153847,-0.0008415384615384611,0.0032446153846153853
0.272,1.0,9.065876923076923,-4.628923076923077,-1.1053615384615385,-0.08184615384615385,-0.0008461538461538458,0.003238461538461539
0.273,1.0,9.066024615384615,-4.628775384615384,-1.1052876923076924,-0.08185076923076923,-0.0008507692307692306,0.0032323076923076927
0.274,1.0,9.066172307692307,-4.628627692307692,-1.105213846153846,-0.08185538461538462,-0.0008553846153846154,0.003226153846153846
0.275,1.0,9.06632,-4.62848,-1.10514,-0.08186,-0.0008600000000000001,0.0032199999999999998
0.276,1.0,9.066467692307691,-4.6283323076923075,-1.105066153846154,-0.08186461538461538,-0.0008646153846153849,0.0032138461538461535
0.277,1.0,9.066615384615384,-4.628184615384615,-1.1049923076923078,-0.08186923076923076,-0.0008692307692307697,0.0032076923076923072
0.278,1.0,9.066763076923076,-4.628036923076923,-1.1049184615384615,-0.08187384615384616,-0.0008738461538461545,0.0032015384615384605
0.279,1.0,9.066910769230768,-4.627889230769231,-1.1048446153846154,-0.08187846153846154,-0.0008784615384615392,0.0031953846153846143
0.28,1.0,9.06705846153846,-4.627741538461538,-1.1047707692307693,-0.08188307692307692,-0.000883076923076924,0.003189230769230768
0.281,1.0,9.067206153846152,-4.627593846153846,-1.104696923076923,-0.08188769230769231,-0.0008876923076923088,0.0031830769230769217
0.28200000000000003,1.0,9.067353846153846,-4.6274461538461535,-1.104623076923077,-0.0818923076923077,-0.0008923076923076937,0.003176923076923075
0.28300000000000003,1.0,9.067501538461539,-4.627298461538461,-1.1045492307692308,-0.08189692307692308,-0.0008969230769230784,0.0031707692307692287
0.28400000000000003,1.0,9.06764923076923,-4.627150769230769,-1.1044753846153845,-0.08190153846153847,-0.0009015384615384632,0.0031646153846153825
0.28500000000000003,1.0,9.067796923076923,-4.627003076923077,-1.1044015384615384,-0.08190615384615385,-0.000906153846153848,0.003158461538461536
0.28600000000000003,1.0,9.067944615384615,-4.626855384615385,-1.1043276923076923,-0.08191076923076923,-0.0009107692307692328,0.0031523076923076895
0.28700000000000003,1.0,9.068092307692307,-4.626707692307692,-1.1042538461538463,-0.08191538461538461,-0.0009153846153846175,0.0031461538461538432
0.28800000000000003,1.0,9.06824,-4.62656,-1.10418,-0.08192,-0.0009200000000000023,0.003139999999999997
0.289,1.0,9.068387692307692,-4.626412307692307,-1.1041061538461538,-0.08192461538461539,-0.0009246153846153868,0.0031338461538461507
0.29,1.0,9.068535384615384,-4.626264615384615,-1.1040323076923078,-0.08192923076923077,-0.0009292307692307716,0.0031276923076923044
0.291,1.0,9.068683076923076,-4.626116923076923,-1.1039584615384614,-0.08193384615384616,-0.0009338461538461564,0.003121538461538458
0.292,1.0,9.068830769230768,-4.625969230769231,-1.1038846153846154,-0.08193846153846154,-0.0009384615384615412,0.003115384615384612
0.293,1.0,9.06897846153846,-4.625821538461539,-1.1038107692307693,-0.08194307692307692,-0.0009430769230769259,0.003109230769230765
0.294,1.0,9.069126153846154,-4.625673846153846,-1.103736923076923,-0.08194769230769232,-0.0009476923076923107,0.003103076923076919
0.295,1.0,9.069273846153846,-4.625526153846153,-1.1036630769230769,-0.0819523076923077,-0.0009523076923076955,0.0030969230769230726
0.296,1.0,9.069421538461539,-4.625378461538461,-1.1035892307692308,-0.08195692307692308,-0.0009569230769230803,0.0030907692307692264
0.297,1.0,9.06956923076923,-4.625230769230769,-1.1035153846153847,-0.08196153846153846,-0.0009615384615384651,0.0030846153846153797
0.298,1.0,9.069716923076923,-4.625083076923077,-1.1034415384615384,-0.08196615384615386,-0.0009661538461538499,0.0030784615384615334
0.299,1.0,9.069864615384615,-4.624935384615385,-1.1033676923076923,-0.08197076923076924,-0.0009707692307692347,0.003072307692307687
0.3,1.0,9.070012307692307,-4.6247876923076925,-1.1032938461538462,-0.08197538461538462,-0.0009753846153846194,0.003066153846153841
0.301,1.0,9.07016,-4.624639999999999,-1.1032199999999999,-0.08198000000000001,-0.0009800000000000043,0.003059999999999994
0.302,1.0,9.070307692307692,-4.624492307692307,-1.1031461538461538,-0.08198461538461539,-0.000984615384615389,0.003053846153846148
0.303,1.0,9.070455384615384,-4.624344615384615,-1.1030723076923077,-0.08198923076923077,-0.0009892307692307737,0.0030476923076923016
0.304,1.0,9.070603076923076,-4.624196923076923,-1.1029984615384614,-0.08199384615384617,-0.0009938461538461585,0.0030415384615384553
0.305,1.0,9.070750769230768,-4.624049230769231,-1.1029246153846153,-0.08199846153846155,-0.0009984615384615433,0.003035384615384609
0.306,1.0,9.07089846153846,-4.6239015384615385,-1.1028507692307692,-0.08200307692307693,-0.0010030769230769281,0.0030292307692307624
0.307,1.0,9.071046153846154,-4.623753846153846,-1.1027769230769229,-0.08200769230769232,-0.001007692307692313,0.003023076923076916
0.308,1.0,9.071193846153847,-4.623606153846153,-1.1027030769230768,-0.0820123076923077,-0.0010123076923076978,0.00301692307692307
0.309,1.0,9.071341538461539,-4.623458461538461,-1.1026292307692307,-0.08201692307692308,-0.0010169230769230824,0.003010769230769223
0.31,1.0,9.071489230769231,-4.623310769230769,-1.1025553846153846,-0.08202153846153847,-0.0010215384615384672,0.003004615384615377
0.311,1.0,9.071636923076923,-4.623163076923077,-1.1024815384615383,-0.08202615384615386,-0.001026153846153852,0.0029984615384615306
0.312,1.0,9.071784615384615,-4.6230153846153845,-1.1024076923076922,-0.08203076923076924,-0.0010307692307692368,0.0029923076923076843
0.313,1.0,9.071932307692308,-4.622867692307692,-1.102333846153846,-0.08203538461538462,-0.0010353846153846216,0.002986153846153838
0.314,1.0,9.07208,-4.62272,-1.1022599999999998,-0.08204000000000002,-0.0010400000000000064,0.0029799999999999913
0.315,1.0,9.072227692307692,-4.622572307692307,-1.1021861538461537,-0.0820446153846154,-0.0010446153846153912,0.002973846153846145
0.316,1.0,9.072375384615384,-4.622424615384615,-1.1021123076923076,-0.08204923076923078,-0.0010492307692307758,0.002967692307692299
0.317,1.0,9.072523076923076,-4.622276923076923,-1.1020384615384613,-0.08205384615384617,-0.0010538461538461606,0.002961538461538452
0.318,1.0,9.072670769230768,-4.6221292307692305,-1.1019646153846152,-0.08205846153846155,-0.0010584615384615454,0.002955384615384606
0.319,1.0,9.072818461538462,-4.621981538461538,-1.1018907692307691,-0.08206307692307693,-0.0010630769230769303,0.0029492307692307596
0.32,1.0,9.072966153846155,-4.621833846153846,-1.101816923076923,-0.08206769230769231,-0.001067692307692315,0.0029430769230769133
0.321,1.0,9.073113846153847,-4.621686153846154,-1.1017430769230767,-0.08207230769230771,-0.0010723076923076999,0.002936923076923067
0.322,1.0,9.073261538461539,-4.621538461538461,-1.1016692307692306,-0.08207692307692309,-0.0010769230769230847,0.0029307692307692203
0.323,1.0,9.073409230769231,-4.621390769230769,-1.1015953846153845,-0.08208153846153847,-0.0010815384615384693,0.002924615384615374
0.324,1.0,9.073556923076923,-4.621243076923077,-1.1015215384615382,-0.08208615384615386,-0.001086153846153854,0.0029184615384615278
0.325,1.0,9.073704615384615,-4.621095384615384,-1.1014476923076921,-0.08209076923076924,-0.001090769230769239,0.002912307692307681
0.326,1.0,9.073852307692308,-4.620947692307692,-1.101373846153846,-0.08209538461538463,-0.0010953846153846237,0.002906153846153835
0.327,1.0,9.074,-4.6208,-1.1013000000000002,-0.08209999999999999,-0.0010999999999999834,0.002899999999999994
0.328,1.0,9.073783333333333,-4.620872727272728,-1.1014454545454548,-0.08209393939393939,-0.0010909090909090747,0.0028969696969696913
0.329,1.0,9.073566666666666,-4.6209454545454545,-1.1015909090909093,-0.08208787878787878,-0.001081818181818166,0.0028939393939393884
0.33,1.0,9.07335,-4.621018181818182,-1.1017363636363637,-0.08208181818181817,-0.0010727272727272571,0.0028909090909090855
0.331,1.0,9.073133333333333,-4.621090909090909,-1.1018818181818184,-0.08207575757575757,-0.0010636363636363484,0.0028878787878787826
0.332,1.0,9.072916666666666,-4.621163636363637,-1.1020272727272729,-0.08206969696969696,-0.0010545454545454395,0.0028848484848484797
0.333,1.0,9.0727,-4.621236363636363,-1.1021727272727275,-0.08206363636363635,-0.0010454545454545308,0.002881818181818177
0.334,1.0,9.072483333333333,-4.621309090909091,-1.102318181818182,-0.08205757575757576,-0.0010363636363636222,0.002878787878787874
0.335,1.0,9.072266666666666,-4.621381818181819,-1.1024636363636366,-0.08205151515151515,-0.0010272727272727135,0.002875757575757571
0.336,1.0,9.072049999999999,-4.6214545454545455,-1.102609090909091,-0.08204545454545455,-0.0010181818181818046,0.002872727272727268
0.337,1.0,9.071833333333332,-4.621527272727273,-1.1027545454545455,-0.08203939393939394,-0.001009090909090896,0.0028696969696969652
0.338,1.0,9.071616666666666,-4.6216,-1.1029000000000002,-0.08203333333333333,-0.000999999999999987,0.0028666666666666623
0.339,1.0,9.071399999999999,-4.621672727272728,-1.1030454545454547,-0.08202727272727273,-0.0009909090909090783,0.0028636363636363594
0.34,1.0,9.071183333333332,-4.621745454545454,-1.1031909090909093,-0.08202121212121212,-0.0009818181818181696,0.0028606060606060565
0.341,1.0,9.070966666666665,-4.621818181818182,-1.1033363636363638,-0.08201515151515151,-0.0009727272727272609,0.0028575757575757537
0.342,1.0,9.07075,-4.62189090909091,-1.1034818181818182,-0.0820090909090909,-0.0009636363636363521,0.0028545454545454508
0.343,1.0,9.070533333333334,-4.6219636363636365,-1.103627272727273,-0.0820030303030303,-0.0009545454545454434,0.0028515151515151474
0.34400000000000003,1.0,9.070316666666667,-4.622036363636364,-1.1037727272727273,-0.0819969696969697,-0.0009454545454545346,0.0028484848484848445
0.34500000000000003,1.0,9.0701,-4.622109090909091,-1.103918181818182,-0.08199090909090909,-0.0009363636363636258,0.0028454545454545416
0.34600000000000003,1.0,9.069883333333333,-4.622181818181819,-1.1040636363636365,-0.08198484848484848,-0.0009272727272727171,0.0028424242424242387
0.34700000000000003,1.0,9.069666666666667,-4.622254545454545,-1.1042090909090911,-0.08197878787878787,-0.0009181818181818083,0.002839393939393936
0.34800000000000003,1.0,9.06945,-4.622327272727273,-1.1043545454545456,-0.08197272727272727,-0.0009090909090908995,0.002836363636363633
0.34900000000000003,1.0,9.069233333333333,-4.6224,-1.1045,-0.08196666666666666,-0.0008999999999999909,0.00283333333333333
0.35000000000000003,1.0,9.069016666666666,-4.6224727272727275,-1.1046454545454547,-0.08196060606060605,-0.0008909090909090821,0.002830303030303027
0.35100000000000003,1.0,9.0688,-4.622545454545455,-1.1047909090909092,-0.08195454545454545,-0.0008818181818181733,0.0028272727272727243
0.352,1.0,9.068583333333333,-4.622618181818182,-1.1049363636363638,-0.08194848484848484,-0.000872727272727265,0.0028242424242424214
0.353,1.0,9.068366666666666,-4.62269090909091,-1.1050818181818183,-0.08194242424242423,-0.0008636363636363563,0.0028212121212121185
0.354,1.0,9.06815,-4.622763636363636,-1.1052272727272727,-0.08193636363636363,-0.0008545454545454475,0.0028181818181818156
0.355,1.0,9.067933333333333,-4.622836363636364,-1.1053727272727274,-0.08193030303030303,-0.0008454545454545388,0.0028151515151515127
0.356,1.0,9.067716666666666,-4.622909090909091,-1.1055181818181818,-0.08192424242424243,-0.0008363636363636301,0.00281212121212121
0.357,1.0,9.067499999999999,-4.6229818181818185,-1.1056636363636365,-0.08191818181818182,-0.0008272727272727212,0.002809090909090907
0.358,1.0,9.067283333333332,-4.623054545454545,-1.105809090909091,-0.08191212121212121,-0.0008181818181818125,0.002806060606060604
0.359,1.0,9.067066666666665,-4.623127272727273,-1.1059545454545454,-0.08190606060606061,-0.0008090909090909037,0.002803030303030301
0.36,1.0,9.066849999999999,-4.623200000000001,-1.1061,-0.0819,-0.0007999999999999949,0.0027999999999999982
0.361,1.0,9.066633333333332,-4.623272727272727,-1.1062454545454545,-0.0818939393939394,-0.0007909090909090863,0.0027969696969696953
0.362,1.0,9.066416666666667,-4.623345454545455,-1.1063909090909092,-0.08188787878787879,-0.0007818181818181775,0.0027939393939393924
0.363,1.0,9.0662,-4.623418181818182,-1.1065363636363637,-0.08188181818181818,-0.0007727272727272687,0.0027909090909090896
0.364,1.0,9.065983333333334,-4.6234909090909095,-1.1066818181818183,-0.08187575757575757,-0.00076363636363636,0.0027878787878787867
0.365,1.0,9.065766666666667,-4.623563636363636,-1.1068272727272728,-0.08186969696969697,-0.0007545454545454512,0.0027848484848484838
0.366,1.0,9.06555,-4.623636363636364,-1.1069727272727272,-0.08186363636363636,-0.0007454545454545424,0.002781818181818181
0.367,1.0,9.065333333333333,-4.623709090909091,-1.107118181818182,-0.08185757575757575,-0.0007363636363636337,0.002778787878787878
0.368,1.0,9.065116666666666,-4.623781818181818,-1.1072636363636363,-0.08185151515151515,-0.000727272727272725,0.002775757575757575
0.369,1.0,9.0649,-4.623854545454546,-1.107409090909091,-0.08184545454545454,-0.0007181818181818162,0.002772727272727272
0.37,1.0,9.064683333333333,-4.623927272727273,-1.1075545454545455,-0.08183939393939393,-0.0007090909090909075,0.0027696969696969693
0.371,1.0,9.064466666666666,-4.6240000000000006,-1.1077,-0.08183333333333333,-0.0006999999999999987,0.0027666666666666664
0.372,1.0,9.06425,-4.624072727272727,-1.1078454545454546,-0.08182727272727272,-0.0006909090909090899,0.0027636363636363635
0.373,1.0,9.064033333333333,-4.624145454545455,-1.107990909090909,-0.08182121212121211,-0.0006818181818181812,0.0027606060606060606
0.374,1.0,9.063816666666666,-4.624218181818182,-1.1081363636363637,-0.08181515151515151,-0.0006727272727272724,0.0027575757575757573
0.375,1.0,9.0636,-4.6242909090909095,-1.1082818181818181,-0.0818090909090909,-0.0006636363636363636,0.0027545454545454544
0.376,1.0,9.063383333333332,-4.624363636363636,-1.1084272727272728,-0.08180303030303031,-0.000654545454545455,0.0027515151515151515
0.377,1.0,9.063166666666666,-4.624436363636364,-1.1085727272727273,-0.0817969696969697,-0.0006454545454545462,0.0027484848484848486
0.378,1.0,9.062949999999999,-4.624509090909092,-1.1087181818181817,-0.0817909090909091,-0.0006363636363636374,0.0027454545454545457
0.379,1.0,9.062733333333332,-4.624581818181818,-1.1088636363636364,-0.08178484848484849,-0.0006272727272727287,0.002742424242424243
0.38,1.0,9.062516666666665,-4.624654545454546,-1.1090090909090908,-0.08177878787878788,-0.0006181818181818199,0.00273939393939394
0.381,1.0,9.062299999999999,-4.624727272727273,-1.1091545454545455,-0.08177272727272727,-0.0006090909090909111,0.002736363636363637
0.382,1.0,9.062083333333334,-4.6248000000000005,-1.1093,-0.08176666666666667,-0.0006000000000000024,0.002733333333333334
0.383,1.0,9.061866666666667,-4.624872727272727,-1.1094454545454544,-0.08176060606060606,-0.0005909090909090937,0.0027303030303030312
0.384,1.0,9.06165,-4.624945454545455,-1.109590909090909,-0.08175454545454545,-0.0005818181818181849,0.0027272727272727284
0.385,1.0,9.061433333333333,-4.625018181818182,-1.1097363636363635,-0.08174848484848485,-0.0005727272727272761,0.0027242424242424255
0.386,1.0,9.061216666666667,-4.625090909090909,-1.1098818181818182,-0.08174242424242424,-0.0005636363636363674,0.0027212121212121226
0.387,1.0,9.061,-4.625163636363637,-1.1100272727272726,-0.08173636363636363,-0.0005545454545454586,0.0027181818181818197
0.388,1.0,9.060783333333333,-4.625236363636364,-1.110172727272727,-0.08173030303030303,-0.0005454545454545498,0.0027151515151515168
0.389,1.0,9.060566666666666,-4.6253090909090915,-1.1103181818181818,-0.08172424242424242,-0.0005363636363636411,0.002712121212121214
0.39,1.0,9.06035,-4.625381818181818,-1.1104636363636362,-0.08171818181818181,-0.0005272727272727323,0.002709090909090911
0.391,1.0,9.060133333333333,-4.625454545454546,-1.1106090909090909,-0.08171212121212121,-0.0005181818181818236,0.002706060606060608
0.392,1.0,9.059916666666666,-4.625527272727273,-1.1107545454545453,-0.0817060606060606,-0.0005090909090909149,0.002703030303030305
0.393,1.0,9.0597,-4.6256,-1.1109,-0.0817,-0.0005000000000000061,0.0027000000000000023
0.394,1.0,9.059772307692308,-4.6256,-1.110826153846154,-0.0817,-0.00048769230769231544,0.0027
0.395,1.0,9.059844615384614,-4.6256,-1.1107523076923078,-0.0817,-0.00047538461538462274,0.0027
0.396,1.0,9.059916923076923,-4.6256,-1.1106784615384615,-0.0817,-0.00046307692307693,0.0027
0.397,1.0,9.05998923076923,-4.6256,-1.1106046153846154,-0.0817,-0.0004507692307692372,0.0027
0.398,1.0,9.060061538461538,-4.6256,-1.1105307692307693,-0.0817,-0.00043846153846154447,0.0027
0.399,1.0,9.060133846153846,-4.6256,-1.110456923076923,-0.0817,-0.0004261538461538517,0.0027
0.4,1.0,9.060206153846153,-4.6256,-1.110383076923077,-0.0817,-0.00041384615384615895,0.0027
0.401,1.0,9.060278461538461,-4.6256,-1.1103092307692308,-0.0817,-0.0004015384615384662,0.0027
0.402,1.0,9.06035076923077,-4.6256,-1.1102353846153847,-0.0817,-0.00038923076923077344,0.0027
0.403,1.0,9.060423076923076,-4.6256,-1.1101615384615384,-0.0817,-0.0003769230769230807,0.0027
0.404,1.0,9.060495384615384,-4.6256,-1.1100876923076923,-0.0817,-0.000364615384615388,0.0027
0.405,1.0,9.060567692307691,-4.6256,-1.1100138461538462,-0.0817,-0.0003523076923076952,0.0027
0.406,1.0,9.06064,-4.6256,-1.10994,-0.0817,-0.00034000000000000246,0.0027
0.40700000000000003,1.0,9.060712307692308,-4.6256,-1.1098661538461538,-0.0817,-0.00032769230769230976,0.0027
0.40800000000000003,1.0,9.060784615384614,-4.6256,-1.1097923076923077,-0.0817,-0.000315384615384617,0.0027
0.40900000000000003,1.0,9.060856923076923,-4.6256,-1.1097184615384617,-0.0817,-0.00030307692307692425,0.0027
0.41000000000000003,1.0,9.06092923076923,-4.6256,-1.1096446153846153,-0.0817,-0.0002907692307692315,0.0027
0.41100000000000003,1.0,9.061001538461538,-4.6256,-1.1095707692307692,-0.0817,-0.00027846153846153873,0.0027
0.41200000000000003,1.0,9.061073846153846,-4.6256,-1.1094969230769232,-0.0817,-0.000266153846153846,0.0027
0.41300000000000003,1.0,9.061146153846153,-4.6256,-1.1094230769230768,-0.0817,-0.0002538461538461532,0.0027
0.41400000000000003,1.0,9.061218461538461,-4.6256,-1.1093492307692308,-0.0817,-0.00024153846153846046,0.0027
0.41500000000000004,1.0,9.06129076923077,-4.6256,-1.1092753846153847,-0.0817,-0.00022923076923076776,0.0027
0.41600000000000004,1.0,9.061363076923076,-4.6256,-1.1092015384615386,-0.0817,-0.000216923076923075,0.0027
0.417,1.0,9.061435384615384,-4.6256,-1.1091276923076923,-0.0817,-0.0002046153846153829,0.0027
0.418,1.0,9.061507692307691,-4.6256,-1.1090538461538462,-0.0817,-0.0001923076923076902,0.0027
0.419,1.0,9.06158,-4.6256,-1.10898,-0.0817,-0.00017999999999999744,0.0027
0.42,1.0,9.061652307692308,-4.6256,-1.1089061538461538,-0.0817,-0.00016769230769230468,0.0027
0.421,1.0,9.061724615384614,-4.6256,-1.1088323076923077,-0.0817,-0.00015538461538461192,0.0027
0.422,1.0,9.061796923076923,-4.6256,-1.1087584615384616,-0.0817,-0.00014307692307691917,0.0027
0.423,1.0,9.06186923076923,-4.6256,-1.1086846153846155,-0.0817,-0.0001307692307692264,0.0027
0.424,1.0,9.061941538461538,-4.6256,-1.1086107692307692,-0.0817,-0.0001184615384615337,0.0027
0.425,1.0,9.062013846153846,-4.6256,-1.108536923076923,-0.0817,-0.00010615384615384095,0.0027
0.426,1.0,9.062086153846153,-4.6256,-1.108463076923077,-0.0817,-9.384615384614819e-05,0.0027
0.427,1.0,9.062158461538461,-4.6256,-1.1083892307692307,-0.0817,-8.153846153845543e-05,0.0027
0.428,1.0,9.06223076923077,-4.6256,-1.1083153846153846,-0.0817,-6.923076923076268e-05,0.0027
0.429,1.0,9.062303076923076,-4.6256,-1.1082415384615385,-0.0817,-5.692307692306992e-05,0.0027
0.43,1.0,9.062375384615384,-4.6256,-1.1081676923076924,-0.0817,-4.4615384615377164e-05,0.0027
0.431,1.0,9.06244769230769,-4.6256,-1.108093846153846,-0.0817,-3.230769230768446e-05,0.0027
0.432,1.0,9.06252,-4.6256,-1.10802,-0.0817,-1.9999999999991704e-05,0.0027
0.433,1.0,9.062592307692308,-4.6256,-1.107946153846154,-0.0817,-7.692307692298947e-06,0.0027
0.434,1.0,9.062664615384614,-4.6256,-1.1078723076923076,-0.0817,4.61538461539381e-06,0.0027
0.435,1.0,9.062736923076923,-4.6256,-1.1077984615384615,-0.0817,1.6923076923086567e-05,0.0027
0.436,1.0,9.06280923076923,-4.6256,-1.1077246153846154,-0.0817,2.9230769230779324e-05,0.0027
0.437,1.0,9.062881538461538,-4.6256,-1.1076507692307693,-0.0817,4.153846153847208e-05,0.0027
0.438,1.0,9.062953846153846,-4.6256,-1.107576923076923,-0.0817,5.384615384616484e-05,0.0027
0.439,1.0,9.063026153846153,-4.6256,-1.107503076923077,-0.0817,6.61538461538576e-05,0.0027
0.44,1.0,9.06309846153846,-4.6256,-1.1074292307692308,-0.0817,7.846153846155035e-05,0.0027
0.441,1.0,9.06317076923077,-4.6256,-1.1073553846153845,-0.0817,9.0769230769243e-05,0.0027
0.442,1.0,9.063243076923076,-4.6256,-1.1072815384615384,-0.0817,0.00010307692307693576,0.0027
0.443,1.0,9.063315384615384,-4.6256,-1.1072076923076923,-0.0817,0.00011538461538462851,0.0027
0.444,1.0,9.06338769230769,-4.6256,-1.1071338461538462,-0.0817,0.00012769230769232127,0.0027
0.445,1.0,9.06346,-4.6256,-1.10706,-0.0817,0.00014000000000001403,0.0027
0.446,1.0,9.063532307692308,-4.6256,-1.1069861538461538,-0.0817,0.00015230769230770679,0.0027
0.447,1.0,9.063604615384614,-4.6256,-1.1069123076923078,-0.0817,0.00016461538461539954,0.0027
0.448,1.0,9.063676923076923,-4.6256,-1.1068384615384614,-0.0817,0.0001769230769230923,0.0027
0.449,1.0,9.063749230769231,-4.6256,-1.1067646153846153,-0.0817,0.00018923076923078506,0.0027
0.45,1.0,9.063821538461537,-4.6256,-1.1066907692307693,-0.0817,0.0002015384615384778,0.0027
0.451,1.0,9.063893846153846,-4.6256,-1.106616923076923,-0.0817,0.00021384615384617057,0.0027
0.452,1.0,9.063966153846152,-4.6256,-1.1065430769230769,-0.0817,0.00022615384615386333,0.0027
0.453,1.0,9.06403846153846,-4.6256,-1.1064692307692308,-0.0817,0.00023846153846155608,0.0027
0.454,1.0,9.06411076923077,-4.6256,-1.1063953846153847,-0.0817,0.00025076923076924873,0.0027
0.455,1.0,9.064183076923076,-4.6256,-1.1063215384615384,-0.0817,0.0002630769230769415,0.0027
0.456,1.0,9.064255384615384,-4.6256,-1.1062476923076923,-0.0817,0.00027538461538463425,0.0027
0.457,1.0,9.06432769230769,-4.6256,-1.1061738461538462,-0.0817,0.000287692307692327,0.0027
0.458,1.0,9.0644,-4.6256,-1.1061,-0.0817,0.00029999999999999244,0.002699999999999985
0.459,1.0,9.064549999999999,-4.6256,-1.1061,-0.08170156249999999,0.0002953124999999924,0.002690624999999985
0.46,1.0,9.0647,-4.6256,-1.1061,-0.081703125,0.00029062499999999244,0.002681249999999985
0.461,1.0,9.06485,-4.6256,-1.1061,-0.0817046875,0.0002859374999999924,0.002671874999999985
0.462,1.0,9.065,-4.6256,-1.1061,-0.08170625,0.00028124999999999244,0.002662499999999985
0.463,1.0,9.06515,-4.6256,-1.1061,-0.0817078125,0.0002765624999999924,0.002653124999999985
0.464,1.0,9.065299999999999,-4.6256,-1.1061,-0.081709375,0.00027187499999999245,0.002643749999999985
0.465,1.0,9.06545,-4.6256,-1.1061,-0.0817109375,0.0002671874999999924,0.002634374999999985
0.466,1.0,9.0656,-4.6256,-1.1061,-0.0817125,0.00026249999999999245,0.002624999999999985
0.467,1.0,9.06575,-4.6256,-1.1061,-0.0817140625,0.0002578124999999924,0.002615624999999985
0.468,1.0,9.0659,-4.6256,-1.1061,-0.081715625,0.00025312499999999245,0.002606249999999985
0.46900000000000003,1.0,9.066049999999999,-4.6256,-1.1061,-0.0817171875,0.0002484374999999924,0.002596874999999985
0.47000000000000003,1.0,9.0662,-4.6256,-1.1061,-0.08171874999999999,0.00024374999999999243,0.0025874999999999848
0.47100000000000003,1.0,9.06635,-4.6256,-1.1061,-0.0817203125,0.00023906249999999243,0.002578124999999985
0.47200000000000003,1.0,9.0665,-4.6256,-1.1061,-0.081721875,0.00023437499999999243,0.002568749999999985
0.47300000000000003,1.0,9.06665,-4.6256,-1.1061,-0.0817234375,0.00022968749999999243,0.002559374999999985
0.47400000000000003,1.0,9.066799999999999,-4.6256,-1.1061,-0.08172499999999999,0.00022499999999999243,0.002549999999999985
0.47500000000000003,1.0,9.06695,-4.6256,-1.1061,-0.0817265625,0.00022031249999999243,0.002540624999999985
0.47600000000000003,1.0,9.0671,-4.6256,-1.1061,-0.081728125,0.00021562499999999243,0.002531249999999985
0.47700000000000004,1.0,9.06725,-4.6256,-1.1061,-0.0817296875,0.00021093749999999244,0.002521874999999985
0.47800000000000004,1.0,9.0674,-4.6256,-1.1061,-0.08173124999999999,0.00020624999999999244,0.002512499999999985
0.47900000000000004,1.0,9.067549999999999,-4.6256,-1.1061,-0.0817328125,0.00020156249999999244,0.002503124999999985
0.48,1.0,9.0677,-4.6256,-1.1061,-0.081734375,0.00019687499999999268,0.0024937499999999856
0.481,1.0,9.06785,-4.6256,-1.1061,-0.0817359375,0.0001921874999999927,0.0024843749999999853
0.482,1.0,9.068,-4.6256,-1.1061,-0.0817375,0.00018749999999999269,0.0024749999999999855
0.483,1.0,9.06815,-4.6256,-1.1061,-0.0817390625,0.00018281249999999271,0.0024656249999999856
0.484,1.0,9.068299999999999,-4.6256,-1.1061,-0.081740625,0.0001781249999999927,0.0024562499999999854
0.485,1.0,9.06845,-4.6256,-1.1061,-0.0817421875,0.0001734374999999927,0.0024468749999999855
0.486,1.0,9.0686,-4.6256,-1.1061,-0.08174375,0.0001687499999999927,0.0024374999999999857
0.487,1.0,9.06875,-4.6256,-1.1061,-0.0817453125,0.0001640624999999927,0.0024281249999999854
0.488,1.0,9.0689,-4.6256,-1.1061,-0.081746875,0.0001593749999999927,0.0024187499999999856
0.489,1.0,9.069049999999999,-4.6256,-1.1061,-0.08174843749999999,0.0001546874999999927,0.0024093749999999853
0.49,1.0,9.0692,-4.6256,-1.1061,-0.08175,0.0001499999999999927,0.0023999999999999855
0.491,1.0,9.06935,-4.6256,-1.1061,-0.0817515625,0.0001453124999999927,0.0023906249999999856
0.492,1.0,9.0695,-4.6256,-1.1061,-0.081753125,0.0001406249999999927,0.0023812499999999854
0.493,1.0,9.06965,-4.6256,-1.1061,-0.08175468749999999,0.0001359374999999927,0.0023718749999999855
0.494,1.0,9.069799999999999,-4.6256,-1.1061,-0.08175625,0.0001312499999999927,0.0023624999999999853
0.495,1.0,9.06995,-4.6256,-1.1061,-0.0817578125,0.0001265624999999927,0.0023531249999999854
0.496,1.0,9.0701,-4.6256,-1.1061,-0.081759375,0.0001218749999999927,0.0023437499999999856
0.497,1.0,9.07025,-4.6256,-1.1061,-0.0817609375,0.0001171874999999927,0.0023343749999999853
0.498,1.0,9.0704,-4.6256,-1.1061,-0.0817625,0.0001124999999999927,0.0023249999999999855
0.499,1.0,9.070549999999999,-4.6256,-1.1061,-0.0817640625,0.00010781249999999271,0.0023156249999999852
0.5,1.0,9.0707,-4.6256,-1.1061,-0.081765625,0.00010312499999999271,0.0023062499999999854
0.501,1.0,9.07085,-4.6256,-1.1061,-0.0817671875,9.843749999999271e-05,0.0022968749999999856
0.502,1.0,9.071,-4.6256,-1.1061,-0.08176875,9.374999999999271e-05,0.0022874999999999853
0.503,1.0,9.07115,-4.6256,-1.1061,-0.0817703125,8.906249999999271e-05,0.0022781249999999855
0.504,1.0,9.071299999999999,-4.6256,-1.1061,-0.081771875,8.437499999999271e-05,0.002268749999999985
0.505,1.0,9.07145,-4.6256,-1.1061,-0.0817734375,7.968749999999271e-05,0.0022593749999999854
0.506,1.0,9.0716,-4.6256,-1.1061,-0.081775,7.499999999999272e-05,0.0022499999999999855
0.507,1.0,9.07175,-4.6256,-1.1061,-0.0817765625,7.031249999999272e-05,0.0022406249999999852
0.508,1.0,9.0719,-4.6256,-1.1061,-0.081778125,6.562499999999272e-05,0.0022312499999999854
0.509,1.0,9.072049999999999,-4.6256,-1.1061,-0.0817796875,6.093749999999269e-05,0.002221874999999985
0.51,1.0,9.0722,-4.6256,-1.1061,-0.08178125,5.6249999999992694e-05,0.0022124999999999853
0.511,1.0,9.07235,-4.6256,-1.1061,-0.0817828125,5.1562499999992695e-05,0.0022031249999999855
0.512,1.0,9.0725,-4.6256,-1.1061,-0.081784375,4.687499999999272e-05,0.002193749999999985
0.513,1.0,9.07265,-4.6256,-1.1061,-0.0817859375,4.21874999999927e-05,0.0021843749999999854
0.514,1.0,9.0728,-4.6256,-1.1061,-0.0817875,3.7499999999992726e-05,0.002174999999999985
0.515,1.0,9.07295,-4.6256,-1.1061,-0.0817890625,3.28124999999927e-05,0.0021656249999999853
0.516,1.0,9.0731,-4.6256,-1.1061,-0.081790625,2.8124999999992728e-05,0.0021562499999999854
0.517,1.0,9.07325,-4.6256,-1.1061,-0.0817921875,2.3437499999992702e-05,0.002146874999999985
0.518,1.0,9.0734,-4.6256,-1.1061,-0.08179375,1.874999999999273e-05,0.0021374999999999853
0.519,1.0,9.073550000000001,-4.6256,-1.1061,-0.0817953125,1.4062499999992705e-05,0.002128124999999985
0.52,1.0,9.0737,-4.6256,-1.1061,-0.081796875,9.374999999992733e-06,0.0021187499999999852
0.521,1.0,9.07385,-4.6256,-1.1061,-0.0817984375,4.6874999999927075e-06,0.0021093749999999854
0.522,1.0,9.074,-4.6256,-1.1060999999999996,-0.0818,-9.714451465470113e-18,0.0021000000000000268
0.523,1.0,9.074,-4.625675,-1.1058765624999998,-0.0818015625,-6.250000000009715e-06,0.0021171875000000266
0.524,1.0,9.074,-4.625750000000001,-1.1056531249999997,-0.081803125,-1.2500000000009716e-05,0.0021343750000000264
0.525,1.0,9.074,-4.625825000000001,-1.1054296874999998,-0.0818046875,-1.8750000000009716e-05,0.0021515625000000267
0.526,1.0,9.074,-4.625900000000001,-1.1052062499999997,-0.08180625,-2.500000000000972e-05,0.0021687500000000266
0.527,1.0,9.074,-4.625975,-1.1049828124999996,-0.08180781250000001,-3.125000000000972e-05,0.0021859375000000264
0.528,1.0,9.074,-4.62605,-1.1047593749999998,-0.081809375,-3.750000000000972e-05,0.0022031250000000267
0.529,1.0,9.074,-4.626125,-1.1045359374999997,-0.0818109375,-4.375000000000972e-05,0.0022203125000000265
0.53,1.0,9.074,-4.626200000000001,-1.1043124999999998,-0.0818125,-5.000000000000972e-05,0.002237500000000027
0.531,1.0,9.074,-4.626275000000001,-1.1040890624999997,-0.0818140625,-5.625000000000972e-05,0.0022546875000000266
0.532,1.0,9.074,-4.62635,-1.1038656249999996,-0.081815625,-6.250000000000972e-05,0.0022718750000000265
0.533,1.0,9.074,-4.626425,-1.1036421874999998,-0.0818171875,-6.875000000000972e-05,0.0022890625000000268
0.534,1.0,9.074,-4.6265,-1.1034187499999997,-0.08181875,-7.500000000000972e-05,0.0023062500000000266
0.535,1.0,9.074,-4.626575000000001,-1.1031953124999998,-0.0818203125,-8.125000000000973e-05,0.0023234375000000264
0.536,1.0,9.074,-4.626650000000001,-1.1029718749999997,-0.081821875,-8.750000000000973e-05,0.0023406250000000267
0.537,1.0,9.074,-4.626725,-1.1027484374999998,-0.0818234375,-9.375000000000972e-05,0.0023578125000000266
0.538,1.0,9.074,-4.6268,-1.1025249999999998,-0.081825,-0.00010000000000000972,0.0023750000000000264
0.539,1.0,9.074,-4.626875,-1.1023015624999997,-0.0818265625,-0.00010625000000000972,0.0023921875000000267
0.54,1.0,9.074,-4.626950000000001,-1.1020781249999998,-0.081828125,-0.00011250000000000973,0.0024093750000000265
0.541,1.0,9.074,-4.627025000000001,-1.1018546874999997,-0.0818296875,-0.00011875000000000973,0.002426562500000027
0.542,1.0,9.074,-4.6271,-1.1016312499999998,-0.08183125,-0.00012500000000000973,0.0024437500000000266
0.543,1.0,9.074,-4.627175,-1.1014078124999997,-0.0818328125,-0.00013125000000000972,0.0024609375000000265
0.544,1.0,9.074,-4.62725,-1.1011843749999997,-0.081834375,-0.00013750000000000974,0.0024781250000000267
0.545,1.0,9.074,-4.627325,-1.1009609374999998,-0.0818359375,-0.00014375000000000973,0.0024953125000000266
0.546,1.0,9.074,-4.627400000000001,-1.1007374999999997,-0.08183750000000001,-0.00015000000000000972,0.002512500000000027
0.547,1.0,9.074,-4.6274750000000004,-1.1005140624999998,-0.0818390625,-0.00015625000000000973,0.0025296875000000267
0.548,1.0,9.074,-4.62755,-1.1002906249999997,-0.081840625,-0.00016250000000000972,0.0025468750000000265
0.549,1.0,9.074,-4.627625,-1.1000671874999997,-0.0818421875,-0.00016875000000000974,0.002564062500000027
0.55,1.0,9.074,-4.6277,-1.0998437499999998,-0.08184375,-0.00017500000000000973,0.0025812500000000267
0.551,1.0,9.074,-4.627775000000001,-1.0996203124999997,-0.0818453125,-0.00018125000000000975,0.0025984375000000265
0.552,1.0,9.074,-4.6278500000000005,-1.0993968749999998,-0.081846875,-0.00018750000000000973,0.0026156250000000268
0.553,1.0,9.074,-4.627925,-1.0991734374999997,-0.0818484375,-0.00019375000000000972,0.0026328125000000266
0.554,1.0,9.074,-4.628,-1.0989499999999996,-0.08185,-0.00020000000000000974,0.0026500000000000265
0.555,1.0,9.074,-4.628075,-1.0987265624999998,-0.0818515625,-0.00020625000000000973,0.0026671875000000267
0.556,1.0,9.074,-4.628150000000001,-1.0985031249999997,-0.081853125,-0.00021250000000000975,0.0026843750000000266
0.557,1.0,9.074,-4.6282250000000005,-1.0982796874999998,-0.0818546875,-0.00021875000000000974,0.002701562500000027
0.558,1.0,9.074,-4.6283,-1.0980562499999997,-0.08185625,-0.00022500000000000975,0.0027187500000000267
0.559,1.0,9.074,-4.628375,-1.0978328124999996,-0.0818578125,-0.00023125000000000974,0.0027359375000000265
0.56,1.0,9.074,-4.62845,-1.0976093749999998,-0.081859375,-0.00023750000000000973,0.002753125000000027
0.561,1.0,9.074,-4.628525,-1.0973859374999997,-0.08186093750000001,-0.00024375000000000975,0.0027703125000000267
0.562,1.0,9.074,-4.6286000000000005,-1.0971624999999998,-0.0818625,-0.00025000000000000976,0.002787500000000027
0.5630000000000001,1.0,9.074,-4.628675,-1.0969390624999997,-0.0818640625,-0.0002562500000000097,0.0028046875000000268
0.5640000000000001,1.0,9.074,-4.62875,-1.0967156249999999,-0.081865625,-0.00026250000000000974,0.0028218750000000266
0.5650000000000001,1.0,9.074,-4.628825,-1.0964921874999998,-0.08186718750000001,-0.00026875000000000976,0.0028390625000000265
0.5660000000000001,1.0,9.074,-4.6289,-1.0962687499999997,-0.08186875,-0.0002750000000000097,0.0028562500000000267
0.5670000000000001,1.0,9.074,-4.6289750000000005,-1.0960453124999998,-0.0818703125,-0.00028125000000000974,0.0028734375000000266
0.5680000000000001,1.0,9.074,-4.62905,-1.0958218749999997,-0.081871875,-0.00028750000000000975,0.002890625000000027
0.5690000000000001,1.0,9.074,-4.629125,-1.0955984374999999,-0.08187343750000001,-0.00029375000000000977,0.0029078125000000267
0.5700000000000001,1.0,9.074,-4.6292,-1.0953749999999998,-0.081875,-0.00030000000000000973,0.0029250000000000265
0.5710000000000001,1.0,9.074,-4.629275,-1.0951515624999997,-0.0818765625,-0.00030625000000000975,0.002942187500000027
0.5720000000000001,1.0,9.074,-4.6293500000000005,-1.0949281249999998,-0.081878125,-0.00031250000000000976,0.0029593750000000267
0.5730000000000001,1.0,9.074,-4.629425,-1.0947046874999997,-0.0818796875,-0.0003187500000000097,0.002976562500000027
0.5740000000000001,1.0,9.074,-4.6295,-1.0944812499999999,-0.08188125,-0.00032500000000000974,0.0029937500000000268
0.5750000000000001,1.0,9.074,-4.629575,-1.0942578124999998,-0.0818828125,-0.00033125000000000976,0.0030109375000000266
0.5760000000000001,1.0,9.074,-4.62965,-1.0940343749999997,-0.08188437500000001,-0.0003375000000000098,0.003028125000000027
0.577,1.0,9.074,-4.629725,-1.0938109374999998,-0.0818859375,-0.00034375000000000903,0.0030453125000000246
0.578,1.0,9.074,-4.6298,-1.0935874999999997,-0.0818875,-0.00035000000000000905,0.003062500000000025
0.579,1.0,9.074,-4.629875,-1.0933640624999998,-0.0818890625,-0.00035625000000000907,0.003079687500000025
0.58,1.0,9.074,-4.62995,-1.0931406249999998,-0.08189062500000001,-0.0003625000000000091,0.003096875000000025
0.581,1.0,9.074,-4.630025,-1.0929171874999999,-0.0818921875,-0.00036875000000000904,0.003114062500000025
0.582,1.0,9.074,-4.6301,-1.0926937499999998,-0.08189375,-0.00037500000000000906,0.0031312500000000246
0.583,1.0,9.074,-4.630175,-1.0924703124999997,-0.0818953125,-0.0003812500000000091,0.003148437500000025
0.584,1.0,9.074,-4.63025,-1.0922468749999998,-0.08189687500000001,-0.00038750000000000904,0.0031656250000000248
0.585,1.0,9.074,-4.630325,-1.0920234374999997,-0.0818984375,-0.00039375000000000906,0.003182812500000025
0.586,1.0,9.074,-4.6304,-1.0918,-0.0819,-0.00040000000000001097,0.0031999999999999915
0.587,1.0,9.074,-4.630254545454545,-1.0918712121212124,-0.0819,-0.00040757575757576826,0.0031939393939393857
0.588,1.0,9.074,-4.630109090909091,-1.0919424242424245,-0.0819,-0.00041515151515152555,0.00318787878787878
0.589,1.0,9.074,-4.629963636363636,-1.0920136363636366,-0.0819,-0.00042272727272728283,0.0031818181818181737
0.59,1.0,9.074,-4.629818181818181,-1.0920848484848487,-0.0819,-0.0004303030303030401,0.003175757575757568
0.591,1.0,9.074,-4.629672727272727,-1.0921560606060607,-0.0819,-0.0004378787878787974,0.003169696969696962
0.592,1.0,9.074,-4.629527272727272,-1.0922272727272728,-0.0819,-0.00044545454545455475,0.0031636363636363563
0.593,1.0,9.074,-4.629381818181818,-1.0922984848484851,-0.0819,-0.00045303030303031204,0.0031575757575757505
0.594,1.0,9.074,-4.629236363636363,-1.0923696969696972,-0.0819,-0.00046060606060606933,0.0031515151515151447
0.595,1.0,9.074,-4.629090909090909,-1.0924409090909093,-0.0819,-0.0004681818181818266,0.003145454545454539
0.596,1.0,9.074,-4.6289454545454545,-1.0925121212121214,-0.0819,-0.0004757575757575839,0.003139393939393933
0.597,1.0,9.074,-4.6288,-1.0925833333333335,-0.0819,-0.0004833333333333412,0.0031333333333333274
0.598,1.0,9.074,-4.628654545454546,-1.0926545454545455,-0.0819,-0.0004909090909090985,0.003127272727272721
0.599,1.0,9.074,-4.62850909090909,-1.0927257575757576,-0.0819,-0.0004984848484848558,0.0031212121212121154
0.6,1.0,9.074,-4.628363636363636,-1.09279696969697,-0.0819,-0.0005060606060606131,0.0031151515151515096
0.601,1.0,9.074,-4.628218181818181,-1.092868181818182,-0.0819,-0.0005136363636363704,0.003109090909090904
0.602,1.0,9.074,-4.628072727272727,-1.092939393939394,-0.0819,-0.0005212121212121276,0.003103030303030298
0.603,1.0,9.074,-4.6279272727272724,-1.0930106060606062,-0.0819,-0.000528787878787885,0.0030969696969696922
0.604,1.0,9.074,-4.627781818181818,-1.0930818181818183,-0.0819,-0.0005363636363636423,0.0030909090909090864
0.605,1.0,9.074,-4.6276363636363635,-1.0931530303030303,-0.0819,-0.0005439393939393996,0.0030848484848484807
0.606,1.0,9.074,-4.627490909090909,-1.0932242424242427,-0.0819,-0.0005515151515151569,0.0030787878787878744
0.607,1.0,9.074,-4.627345454545455,-1.0932954545454547,-0.0819,-0.0005590909090909141,0.0030727272727272686
0.608,1.0,9.074,-4.6272,-1.0933666666666668,-0.0819,-0.0005666666666666715,0.003066666666666663
0.609,1.0,9.074,-4.627054545454545,-1.093437878787879,-0.0819,-0.0005742424242424287,0.003060606060606057
0.61,1.0,9.074,-4.62690909090909,-1.093509090909091,-0.0819,-0.0005818181818181861,0.0030545454545454513
0.611,1.0,9.074,-4.626763636363636,-1.093580303030303,-0.0819,-0.0005893939393939434,0.0030484848484848455
0.612,1.0,9.074,-4.6266181818181815,-1.0936515151515152,-0.0819,-0.0005969696969697006,0.0030424242424242397
0.613,1.0,9.074,-4.626472727272727,-1.0937227272727275,-0.0819,-0.000604545454545458,0.003036363636363634
0.614,1.0,9.074,-4.626327272727273,-1.0937939393939395,-0.0819,-0.0006121212121212152,0.003030303030303028
0.615,1.0,9.074,-4.626181818181818,-1.0938651515151516,-0.0819,-0.0006196969696969726,0.003024242424242422
0.616,1.0,9.074,-4.626036363636364,-1.0939363636363637,-0.0819,-0.0006272727272727298,0.003018181818181816
0.617,1.0,9.074,-4.625890909090909,-1.0940075757575758,-0.0819,-0.0006348484848484871,0.0030121212121212103
0.618,1.0,9.074,-4.625745454545455,-1.0940787878787879,-0.0819,-0.0006424242424242445,0.0030060606060606045
0.619,1.0,9.074,-4.6255999999999995,-1.0941500000000002,-0.0819,-0.0006500000000000017,0.0029999999999999988
0.62,1.0,9.074,-4.625454545454545,-1.0942212121212123,-0.0819,-0.0006575757575757589,0.002993939393939393
0.621,1.0,9.074,-4.625309090909091,-1.0942924242424243,-0.0819,-0.0006651515151515163,0.002987878787878787
0.622,1.0,9.074,-4.625163636363636,-1.0943636363636364,-0.0819,-0.0006727272727272736,0.0029818181818181814
0.623,1.0,9.074,-4.625018181818182,-1.0944348484848485,-0.0819,-0.0006803030303030309,0.002975757575757575
0.624,1.0,9.074,-4.624872727272727,-1.0945060606060606,-0.0819,-0.0006878787878787882,0.0029696969696969694
0.625,1.0,9.074,-4.624727272727273,-1.094577272727273,-0.0819,-0.0006954545454545455,0.0029636363636363636
0.626,1.0,9.074,-4.624581818181818,-1.094648484848485,-0.0819,-0.0007030303030303028,0.002957575757575758
0.627,1.0,9.074,-4.624436363636364,-1.094719696969697,-0.0819,-0.00071060606060606,0.002951515151515152
0.628,1.0,9.074,-4.6242909090909095,-1.0947909090909091,-0.0819,-0.0007181818181818174,0.0029454545454545462
0.629,1.0,9.074,-4.624145454545454,-1.0948621212121212,-0.0819,-0.0007257575757575747,0.0029393939393939405
0.63,1.0,9.074,-4.624,-1.0949333333333333,-0.0819,-0.0007333333333333319,0.0029333333333333347
0.631,1.0,9.074,-4.623854545454545,-1.0950045454545454,-0.0819,-0.0007409090909090893,0.002927272727272729
0.632,1.0,9.074,-4.623709090909091,-1.0950757575757577,-0.0819,-0.0007484848484848466,0.0029212121212121227
0.633,1.0,9.074,-4.623563636363636,-1.0951469696969698,-0.0819,-0.0007560606060606039,0.002915151515151517
0.634,1.0,9.074,-4.623418181818182,-1.0952181818181819,-0.0819,-0.0007636363636363611,0.002909090909090911
0.635,1.0,9.074,-4.623272727272727,-1.095289393939394,-0.0819,-0.0007712121212121184,0.0029030303030303053
0.636,1.0,9.074,-4.623127272727273,-1.095360606060606,-0.0819,-0.0007787878787878758,0.0028969696969696995
0.637,1.0,9.074,-4.6229818181818185,-1.0954318181818181,-0.0819,-0.000786363636363633,0.0028909090909090937
0.638,1.0,9.074,-4.622836363636364,-1.0955030303030304,-0.0819,-0.0007939393939393903,0.002884848484848488
0.639,1.0,9.074,-4.622690909090909,-1.0955742424242425,-0.0819,-0.0008015151515151477,0.0028787878787878817
0.64,1.0,9.074,-4.622545454545454,-1.0956454545454546,-0.0819,-0.0008090909090909049,0.002872727272727276
0.641,1.0,9.074,-4.6224,-1.0957166666666667,-0.0819,-0.0008166666666666622,0.00286666666666667
0.642,1.0,9.074,-4.622254545454545,-1.0957878787878788,-0.0819,-0.0008242424242424195,0.0028606060606060644
0.643,1.0,9.074,-4.622109090909091,-1.0958590909090908,-0.0819,-0.0008318181818181768,0.0028545454545454586
0.644,1.0,9.074,-4.6219636363636365,-1.095930303030303,-0.0819,-0.0008393939393939341,0.0028484848484848528
0.645,1.0,9.074,-4.621818181818182,-1.0960015151515152,-0.0819,-0.0008469696969696913,0.002842424242424247
0.646,1.0,9.074,-4.621672727272728,-1.0960727272727273,-0.0819,-0.0008545454545454488,0.002836363636363641
0.647,1.0,9.074,-4.621527272727273,-1.0961439393939394,-0.0819,-0.000862121212121206,0.0028303030303030354
0.648,1.0,9.074,-4.621381818181819,-1.0962151515151515,-0.0819,-0.0008696969696969632,0.0028242424242424296
0.649,1.0,9.074,-4.621236363636363,-1.0962863636363636,-0.0819,-0.0008772727272727206,0.0028181818181818234
0.65,1.0,9.074,-4.621090909090909,-1.0963575757575756,-0.0819,-0.0008848484848484779,0.0028121212121212176
0.651,1.0,9.074,-4.6209454545454545,-1.096428787878788,-0.0819,-0.0008924242424242352,0.002806060606060612
0.652,1.0,9.074,-4.6208,-1.0965,-0.0819,-0.0008999999999999924,0.002800000000000006
0.653,1.0,9.073926153846154,-4.6208,-1.0963538461538462,-0.08190461538461538,-0.0009,0.0028076923076923
0.654,1.0,9.073852307692308,-4.6208,-1.0962076923076924,-0.08190923076923076,-0.0009,0.002815384615384608
0.655,1.0,9.073778461538462,-4.6208,-1.0960615384615386,-0.08191384615384616,-0.0009,0.002823076923076916
0.656,1.0,9.073704615384615,-4.6208,-1.0959153846153848,-0.08191846153846154,-0.0009,0.002830769230769224
0.657,1.0,9.07363076923077,-4.6208,-1.0957692307692308,-0.08192307692307692,-0.0009,0.0028384615384615323
0.658,1.0,9.073556923076923,-4.6208,-1.095623076923077,-0.0819276923076923,-0.0009,0.0028461538461538403
0.659,1.0,9.073483076923077,-4.6208,-1.0954769230769232,-0.0819323076923077,-0.0009,0.0028538461538461482
0.66,1.0,9.073409230769231,-4.6208,-1.0953307692307694,-0.08193692307692307,-0.0009,0.002861538461538456
0.661,1.0,9.073335384615385,-4.6208,-1.0951846153846154,-0.08194153846153845,-0.0009,0.002869230769230764
0.662,1.0,9.073261538461539,-4.6208,-1.0950384615384616,-0.08194615384615385,-0.0009,0.002876923076923072
0.663,1.0,9.073187692307693,-4.6208,-1.0948923076923078,-0.08195076923076923,-0.0009,0.00288461538461538
0.664,1.0,9.073113846153847,-4.6208,-1.094746153846154,-0.08195538461538461,-0.0009,0.002892307692307688
0.665,1.0,9.07304,-4.6208,-1.0946,-0.08195999999999999,-0.0009,0.002899999999999996
0.666,1.0,9.072966153846155,-4.6208,-1.0944538461538462,-0.08196461538461539,-0.0009,0.002907692307692304
0.667,1.0,9.072892307692308,-4.6208,-1.0943076923076924,-0.08196923076923077,-0.0009,0.002915384615384612
0.668,1.0,9.072818461538462,-4.6208,-1.0941615384615386,-0.08197384615384615,-0.0009,0.0029230769230769197
0.669,1.0,9.072744615384615,-4.6208,-1.0940153846153846,-0.08197846153846154,-0.0009,0.0029307692307692277
0.67,1.0,9.072670769230768,-4.6208,-1.0938692307692308,-0.08198307692307692,-0.0009,0.0029384615384615356
0.671,1.0,9.072596923076922,-4.6208,-1.093723076923077,-0.0819876923076923,-0.0009,0.0029461538461538436
0.672,1.0,9.072523076923076,-4.6208,-1.0935769230769232,-0.08199230769230768,-0.0009,0.0029538461538461515
0.673,1.0,9.07244923076923,-4.6208,-1.0934307692307692,-0.08199692307692308,-0.0009,0.0029615384615384595
0.674,1.0,9.072375384615384,-4.6208,-1.0932846153846154,-0.08200153846153846,-0.0009,0.0029692307692307674
0.675,1.0,9.072301538461538,-4.6208,-1.0931384615384616,-0.08200615384615384,-0.0009,0.0029769230769230754
0.676,1.0,9.072227692307692,-4.6208,-1.0929923076923078,-0.08201076923076923,-0.0009,0.0029846153846153833
0.677,1.0,9.072153846153846,-4.6208,-1.0928461538461538,-0.08201538461538461,-0.0009,0.0029923076923076917
0.678,1.0,9.07208,-4.6208,-1.0927,-0.08202,-0.0009,0.0029999999999999996
0.679,1.0,9.072006153846154,-4.6208,-1.0925538461538462,-0.08202461538461538,-0.0009,0.0030076923076923076
0.68,1.0,9.071932307692308,-4.6208,-1.0924076923076924,-0.08202923076923077,-0.0009,0.0030153846153846155
0.681,1.0,9.071858461538461,-4.6208,-1.0922615384615384,-0.08203384615384615,-0.0009,0.0030230769230769235
0.682,1.0,9.071784615384615,-4.6208,-1.0921153846153846,-0.08203846153846153,-0.0009,0.0030307692307692314
0.683,1.0,9.07171076923077,-4.6208,-1.0919692307692308,-0.08204307692307693,-0.0009,0.0030384615384615394
0.684,1.0,9.071636923076923,-4.6208,-1.091823076923077,-0.08204769230769231,-0.0009,0.0030461538461538473
0.685,1.0,9.071563076923077,-4.6208,-1.091676923076923,-0.08205230769230769,-0.0009,0.0030538461538461553
0.686,1.0,9.071489230769231,-4.6208,-1.0915307692307692,-0.08205692307692307,-0.0009,0.003061538461538463
0.687,1.0,9.071415384615385,-4.6208,-1.0913846153846154,-0.08206153846153846,-0.0009,0.003069230769230771
0.6880000000000001,1.0,9.071341538461539,-4.6208,-1.0912384615384614,-0.08206615384615384,-0.0009,0.003076923076923079
0.6890000000000001,1.0,9.071267692307693,-4.6208,-1.0910923076923076,-0.08207076923076922,-0.0009,0.003084615384615387
0.6900000000000001,1.0,9.071193846153847,-4.6208,-1.0909461538461538,-0.08207538461538462,-0.0009,0.003092307692307695
0.6910000000000001,1.0,9.07112,-4.6208,-1.0908,-0.08208,-0.0009,0.003100000000000003
0.6920000000000001,1.0,9.071046153846154,-4.6208,-1.090653846153846,-0.08208461538461538,-0.0009,0.003107692307692311
0.6930000000000001,1.0,9.070972307692308,-4.6208,-1.0905076923076922,-0.08208923076923078,-0.0009,0.003115384615384619
0.6940000000000001,1.0,9.070898461538462,-4.6208,-1.0903615384615384,-0.08209384615384616,-0.0009,0.003123076923076927
0.6950000000000001,1.0,9.070824615384616,-4.6208,-1.0902153846153846,-0.08209846153846154,-0.0009,0.0031307692307692347
0.6960000000000001,1.0,9.07075076923077,-4.6208,-1.0900692307692306,-0.08210307692307692,-0.0009,0.003138461538461543
0.6970000000000001,1.0,9.070676923076924,-4.6208,-1.0899230769230768,-0.08210769230769231,-0.0009,0.003146153846153851
0.6980000000000001,1.0,9.070603076923078,-4.6208,-1.089776923076923,-0.08211230769230769,-0.0009,0.003153846153846159
0.6990000000000001,1.0,9.070529230769232,-4.6208,-1.0896307692307692,-0.08211692307692307,-0.0009,0.003161538461538467
0.7000000000000001,1.0,9.070455384615384,-4.6208,-1.0894846153846152,-0.08212153846153847,-0.0009,0.003169230769230775
0.7010000000000001,1.0,9.070381538461538,-4.6208,-1.0893384615384614,-0.08212615384615385,-0.0009,0.003176923076923083
0.7020000000000001,1.0,9.070307692307692,-4.6208,-1.0891923076923076,-0.08213076923076923,-0.0009,0.0031846153846153908
0.7030000000000001,1.0,9.070233846153846,-4.6208,-1.0890461538461538,-0.08213538461538461,-0.0009,0.0031923076923076987
0.704,1.0,9.07016,-4.6208,-1.0889,-0.08214,-0.0009,0.003200000000000006
0.705,1.0,9.070086153846153,-4.6208,-1.088753846153846,-0.08214461538461539,-0.0009,0.0032076923076923137
0.706,1.0,9.070012307692307,-4.6208,-1.0886076923076922,-0.08214923076923077,-0.0009,0.0032153846153846217
0.707,1.0,9.069938461538461,-4.6208,-1.0884615384615384,-0.08215384615384616,-0.0009,0.0032230769230769296
0.708,1.0,9.069864615384615,-4.6208,-1.0883153846153844,-0.08215846153846154,-0.0009,0.0032307692307692376
0.709,1.0,9.069790769230769,-4.6208,-1.0881692307692306,-0.08216307692307692,-0.0009,0.0032384615384615455
0.71,1.0,9.069716923076923,-4.6208,-1.0880230769230768,-0.0821676923076923,-0.0009,0.0032461538461538535
0.711,1.0,9.069643076923077,-4.6208,-1.087876923076923,-0.0821723076923077,-0.0009,0.0032538461538461614
0.712,1.0,9.06956923076923,-4.6208,-1.087730769230769,-0.08217692307692308,-0.0009,0.0032615384615384694
0.713,1.0,9.069495384615385,-4.6208,-1.0875846153846151,-0.08218153846153846,-0.0009,0.0032692307692307777
0.714,1.0,9.069421538461539,-4.6208,-1.0874384615384614,-0.08218615384615385,-0.0009,0.0032769230769230853
0.715,1.0,9.069347692307693,-4.6208,-1.0872923076923076,-0.08219076923076923,-0.0009,0.0032846153846153936
0.716,1.0,9.069273846153846,-4.6208,-1.0871461538461535,-0.08219538461538461,-0.0009,0.003292307692307701
0.717,1.0,9.0692,-4.6208,-1.0870000000000002,-0.0822,-0.0008999999999999963,0.0032999999999999835
0.718,1.0,9.069127272727274,-4.620727272727272,-1.087216666666667,-0.08219545454545453,-0.0008969696969696934,0.0032863636363636203
0.719,1.0,9.069054545454545,-4.620654545454546,-1.0874333333333335,-0.08219090909090908,-0.0008939393939393904,0.003272727272727257
0.72,1.0,9.068981818181818,-4.620581818181818,-1.0876500000000002,-0.08218636363636363,-0.0008909090909090875,0.003259090909090894
0.721,1.0,9.068909090909091,-4.620509090909091,-1.0878666666666668,-0.08218181818181818,-0.0008878787878787846,0.003245454545454531
0.722,1.0,9.068836363636365,-4.6204363636363635,-1.0880833333333335,-0.08217727272727272,-0.0008848484848484817,0.0032318181818181677
0.723,1.0,9.068763636363636,-4.620363636363637,-1.0883000000000003,-0.08217272727272726,-0.0008818181818181788,0.0032181818181818045
0.724,1.0,9.06869090909091,-4.620290909090909,-1.0885166666666668,-0.0821681818181818,-0.0008787878787878758,0.0032045454545454413
0.725,1.0,9.068618181818183,-4.620218181818181,-1.0887333333333336,-0.08216363636363636,-0.0008757575757575729,0.0031909090909090785
0.726,1.0,9.068545454545454,-4.6201454545454546,-1.08895,-0.0821590909090909,-0.00087272727272727,0.0031772727272727152
0.727,1.0,9.068472727272727,-4.620072727272727,-1.0891666666666668,-0.08215454545454545,-0.0008696969696969671,0.003163636363636352
0.728,1.0,9.0684,-4.62,-1.0893833333333334,-0.08214999999999999,-0.0008666666666666641,0.0031499999999999887
0.729,1.0,9.068327272727274,-4.619927272727272,-1.0896000000000001,-0.08214545454545454,-0.0008636363636363612,0.0031363636363636255
0.73,1.0,9.068254545454545,-4.619854545454546,-1.0898166666666669,-0.08214090909090908,-0.0008606060606060583,0.0031227272727272627
0.731,1.0,9.068181818181818,-4.619781818181818,-1.0900333333333334,-0.08213636363636363,-0.0008575757575757555,0.0031090909090908995
0.732,1.0,9.068109090909092,-4.619709090909091,-1.0902500000000002,-0.08213181818181818,-0.0008545454545454525,0.0030954545454545362
0.733,1.0,9.068036363636363,-4.6196363636363635,-1.0904666666666667,-0.08212727272727272,-0.0008515151515151496,0.003081818181818173
0.734,1.0,9.067963636363636,-4.619563636363636,-1.0906833333333334,-0.08212272727272726,-0.0008484848484848467,0.00306818181818181
0.735,1.0,9.06789090909091,-4.619490909090909,-1.0909,-0.08211818181818181,-0.0008454545454545438,0.003054545454545447
0.736,1.0,9.067818181818183,-4.619418181818181,-1.0911166666666667,-0.08211363636363636,-0.0008424242424242409,0.0030409090909090837
0.737,1.0,9.067745454545454,-4.619345454545455,-1.0913333333333335,-0.08210909090909091,-0.0008393939393939379,0.0030272727272727205
0.738,1.0,9.067672727272727,-4.619272727272727,-1.09155,-0.08210454545454544,-0.000836363636363635,0.0030136363636363577
0.739,1.0,9.0676,-4.6192,-1.0917666666666668,-0.08209999999999999,-0.0008333333333333321,0.0029999999999999944
0.74,1.0,9.067527272727272,-4.6191272727272725,-1.0919833333333333,-0.08209545454545454,-0.0008303030303030292,0.002986363636363631
0.741,1.0,9.067454545454545,-4.619054545454546,-1.0922,-0.08209090909090909,-0.0008272727272727262,0.002972727272727268
0.742,1.0,9.067381818181818,-4.618981818181818,-1.0924166666666666,-0.08208636363636364,-0.0008242424242424233,0.002959090909090905
0.743,1.0,9.067309090909092,-4.61890909090909,-1.0926333333333333,-0.08208181818181817,-0.0008212121212121204,0.002945454545454542
0.744,1.0,9.067236363636363,-4.618836363636364,-1.09285,-0.08207727272727272,-0.0008181818181818175,0.0029318181818181787
0.745,1.0,9.067163636363636,-4.618763636363636,-1.0930666666666666,-0.08207272727272727,-0.0008151515151515146,0.0029181818181818154
0.746,1.0,9.06709090909091,-4.618690909090909,-1.0932833333333334,-0.08206818181818182,-0.0008121212121212116,0.002904545454545452
0.747,1.0,9.067018181818181,-4.6186181818181815,-1.0935,-0.08206363636363637,-0.0008090909090909087,0.0028909090909090894
0.748,1.0,9.066945454545454,-4.618545454545455,-1.0937166666666667,-0.0820590909090909,-0.0008060606060606058,0.002877272727272726
0.749,1.0,9.066872727272727,-4.618472727272727,-1.0939333333333332,-0.08205454545454545,-0.0008030303030303029,0.002863636363636363
0.75,1.0,9.0668,-4.618399999999999,-1.09415,-0.08205,-0.0007999999999999999,0.00285
0.751,1.0,9.066727272727272,-4.618327272727273,-1.0943666666666667,-0.08204545454545455,-0.000796969696969697,0.002836363636363637
0.752,1.0,9.066654545454545,-4.618254545454545,-1.0945833333333332,-0.0820409090909091,-0.0007939393939393941,0.0028227272727272736
0.753,1.0,9.066581818181819,-4.618181818181818,-1.0948,-0.08203636363636363,-0.0007909090909090912,0.0028090909090909104
0.754,1.0,9.06650909090909,-4.6181090909090905,-1.0950166666666665,-0.08203181818181818,-0.0007878787878787884,0.002795454545454547
0.755,1.0,9.066436363636363,-4.618036363636364,-1.0952333333333333,-0.08202727272727273,-0.0007848484848484854,0.0027818181818181843
0.756,1.0,9.066363636363636,-4.617963636363636,-1.0954499999999998,-0.08202272727272727,-0.0007818181818181825,0.002768181818181821
0.757,1.0,9.066290909090908,-4.617890909090909,-1.0956666666666666,-0.08201818181818182,-0.0007787878787878796,0.002754545454545458
0.758,1.0,9.066218181818181,-4.617818181818182,-1.0958833333333333,-0.08201363636363636,-0.0007757575757575767,0.002740909090909095
0.759,1.0,9.066145454545454,-4.617745454545454,-1.0960999999999999,-0.0820090909090909,-0.0007727272727272737,0.002727272727272732
0.76,1.0,9.066072727272728,-4.617672727272727,-1.0963166666666666,-0.08200454545454545,-0.0007696969696969708,0.0027136363636363686
0.761,1.0,9.065999999999999,-4.6175999999999995,-1.0965333333333331,-0.082,-0.0007666666666666679,0.0027000000000000053
0.762,1.0,9.065927272727272,-4.617527272727273,-1.09675,-0.08199545454545455,-0.000763636363636365,0.002686363636363642
0.763,1.0,9.065854545454545,-4.617454545454545,-1.0969666666666664,-0.08199090909090909,-0.0007606060606060621,0.0026727272727272793
0.764,1.0,9.065781818181817,-4.617381818181818,-1.0971833333333332,-0.08198636363636363,-0.0007575757575757591,0.002659090909090916
0.765,1.0,9.06570909090909,-4.617309090909091,-1.0974,-0.08198181818181818,-0.0007545454545454562,0.002645454545454553
0.766,1.0,9.065636363636363,-4.617236363636364,-1.0976166666666665,-0.08197727272727273,-0.0007515151515151533,0.0026318181818181896
0.767,1.0,9.065563636363636,-4.617163636363636,-1.0978333333333332,-0.08197272727272728,-0.0007484848484848504,0.002618181818181827
0.768,1.0,9.065490909090908,-4.6170909090909085,-1.0980499999999997,-0.08196818181818182,-0.0007454545454545474,0.0026045454545454635
0.769,1.0,9.065418181818181,-4.617018181818182,-1.0982666666666665,-0.08196363636363636,-0.0007424242424242445,0.0025909090909091003
0.77,1.0,9.065345454545454,-4.616945454545454,-1.098483333333333,-0.08195909090909091,-0.0007393939393939416,0.002577272727272737
0.771,1.0,9.065272727272726,-4.616872727272727,-1.0986999999999998,-0.08195454545454546,-0.0007363636363636387,0.002563636363636374
0.772,1.0,9.065199999999999,-4.6168,-1.0989166666666665,-0.08195000000000001,-0.0007333333333333358,0.002550000000000011
0.773,1.0,9.065127272727272,-4.616727272727273,-1.099133333333333,-0.08194545454545454,-0.0007303030303030328,0.002536363636363648
0.774,1.0,9.065054545454545,-4.616654545454545,-1.0993499999999998,-0.08194090909090909,-0.0007272727272727299,0.0025227272727272845
0.775,1.0,9.064981818181817,-4.616581818181818,-1.0995666666666664,-0.08193636363636364,-0.000724242424242427,0.0025090909090909217
0.776,1.0,9.06490909090909,-4.616509090909091,-1.0997833333333331,-0.08193181818181819,-0.000721212121212124,0.0024954545454545585
0.777,1.0,9.064836363636363,-4.616436363636363,-1.0999999999999996,-0.08192727272727274,-0.0007181818181818211,0.0024818181818181953
0.778,1.0,9.064763636363635,-4.616363636363636,-1.1002166666666664,-0.08192272727272727,-0.0007151515151515183,0.002468181818181832
0.779,1.0,9.064690909090908,-4.616290909090909,-1.1004333333333332,-0.08191818181818182,-0.0007121212121212154,0.002454545454545469
0.78,1.0,9.064618181818181,-4.616218181818182,-1.1006499999999997,-0.08191363636363637,-0.0007090909090909125,0.002440909090909106
0.781,1.0,9.064545454545454,-4.616145454545454,-1.1008666666666664,-0.08190909090909092,-0.0007060606060606096,0.0024272727272727427
0.782,1.0,9.064472727272726,-4.616072727272727,-1.101083333333333,-0.08190454545454547,-0.0007030303030303066,0.0024136363636363795
0.783,1.0,9.0644,-4.616,-1.1012999999999997,-0.0819,-0.0007000000000000037,0.0024000000000000167
0.784,1.0,9.064473846153845,-4.616221538461538,-1.101373846153846,-0.0819,-0.0006953846153846208,0.0024015384615384593
0.785,1.0,9.064547692307691,-4.616443076923076,-1.1014476923076921,-0.0819,-0.0006907692307692361,0.002403076923076921
0.786,1.0,9.064621538461537,-4.6166646153846145,-1.1015215384615384,-0.0819,-0.0006861538461538513,0.0024046153846153826
0.787,1.0,9.064695384615383,-4.616886153846154,-1.1015953846153845,-0.0819,-0.0006815384615384665,0.0024061538461538443
0.788,1.0,9.06476923076923,-4.617107692307692,-1.1016692307692306,-0.0819,-0.0006769230769230817,0.002407692307692306
0.789,1.0,9.064843076923076,-4.61732923076923,-1.1017430769230767,-0.0819,-0.000672307692307697,0.0024092307692307677
0.79,1.0,9.064916923076922,-4.6175507692307685,-1.101816923076923,-0.0819,-0.0006676923076923122,0.002410769230769229
0.791,1.0,9.064990769230768,-4.617772307692307,-1.1018907692307691,-0.0819,-0.0006630769230769274,0.0024123076923076906
0.792,1.0,9.065064615384614,-4.617993846153846,-1.1019646153846152,-0.0819,-0.0006584615384615427,0.0024138461538461523
0.793,1.0,9.06513846153846,-4.618215384615384,-1.1020384615384615,-0.0819,-0.0006538461538461578,0.002415384615384614
0.794,1.0,9.065212307692306,-4.618436923076922,-1.1021123076923076,-0.0819,-0.000649230769230773,0.0024169230769230756
0.795,1.0,9.065286153846154,-4.618658461538461,-1.1021861538461537,-0.0819,-0.0006446153846153882,0.002418461538461537
0.796,1.0,9.06536,-4.61888,-1.10226,-0.0819,-0.0006400000000000035,0.0024199999999999985
0.797,1.0,9.065433846153846,-4.619101538461538,-1.102333846153846,-0.0819,-0.0006353846153846187,0.0024215384615384602
0.798,1.0,9.065507692307692,-4.619323076923076,-1.1024076923076922,-0.0819,-0.0006307692307692339,0.002423076923076922
0.799,1.0,9.065581538461538,-4.619544615384615,-1.1024815384615383,-0.0819,-0.0006261538461538492,0.0024246153846153836
0.8,1.0,9.065655384615384,-4.619766153846154,-1.1025553846153846,-0.0819,-0.0006215384615384644,0.0024261538461538452
0.801,1.0,9.06572923076923,-4.619987692307692,-1.1026292307692307,-0.0819,-0.0006169230769230796,0.0024276923076923065
0.802,1.0,9.065803076923077,-4.62020923076923,-1.1027030769230768,-0.0819,-0.0006123076923076948,0.002429230769230768
0.803,1.0,9.065876923076923,-4.620430769230769,-1.102776923076923,-0.0819,-0.0006076923076923101,0.00243076923076923
0.804,1.0,9.065950769230769,-4.620652307692307,-1.1028507692307692,-0.0819,-0.0006030769230769253,0.0024323076923076915
0.805,1.0,9.066024615384615,-4.620873846153846,-1.1029246153846153,-0.0819,-0.0005984615384615404,0.002433846153846153
0.806,1.0,9.066098461538461,-4.621095384615384,-1.1029984615384616,-0.0819,-0.0005938461538461557,0.002435384615384615
0.807,1.0,9.066172307692307,-4.621316923076923,-1.1030723076923077,-0.0819,-0.0005892307692307709,0.002436923076923076
0.808,1.0,9.066246153846153,-4.621538461538461,-1.1031461538461538,-0.0819,-0.0005846153846153861,0.002438461538461538
0.809,1.0,9.06632,-4.62176,-1.10322,-0.0819,-0.0005800000000000013,0.0024399999999999995
0.81,1.0,9.066393846153845,-4.621981538461538,-1.1032938461538462,-0.0819,-0.0005753846153846165,0.002441538461538461
0.811,1.0,9.066467692307691,-4.622203076923077,-1.1033676923076923,-0.0819,-0.0005707692307692318,0.002443076923076923
0.812,1.0,9.066541538461538,-4.622424615384615,-1.1034415384615384,-0.0819,-0.000566153846153847,0.002444615384615384
0.8130000000000001,1.0,9.066615384615384,-4.622646153846153,-1.1035153846153847,-0.0819,-0.0005615384615384623,0.0024461538461538457
0.8140000000000001,1.0,9.06668923076923,-4.622867692307692,-1.1035892307692308,-0.0819,-0.0005569230769230775,0.0024476923076923074
0.8150000000000001,1.0,9.066763076923076,-4.623089230769231,-1.1036630769230769,-0.0819,-0.0005523076923076927,0.002449230769230769
0.8160000000000001,1.0,9.066836923076924,-4.623310769230769,-1.1037369230769232,-0.0819,-0.0005476923076923078,0.0024507692307692308
0.8170000000000001,1.0,9.06691076923077,-4.623532307692307,-1.1038107692307693,-0.0819,-0.000543076923076923,0.0024523076923076924
0.8180000000000001,1.0,9.066984615384616,-4.623753846153846,-1.1038846153846154,-0.0819,-0.0005384615384615383,0.0024538461538461537
0.8190000000000001,1.0,9.067058461538462,-4.623975384615385,-1.1039584615384617,-0.0819,-0.0005338461538461535,0.0024553846153846154
0.8200000000000001,1.0,9.067132307692308,-4.624196923076923,-1.1040323076923078,-0.0819,-0.0005292307692307688,0.002456923076923077
0.8210000000000001,1.0,9.067206153846154,-4.624418461538461,-1.1041061538461538,-0.0819,-0.000524615384615384,0.0024584615384615387
0.8220000000000001,1.0,9.06728,-4.624639999999999,-1.10418,-0.0819,-0.0005199999999999992,0.0024600000000000004
0.8230000000000001,1.0,9.067353846153846,-4.624861538461539,-1.1042538461538463,-0.0819,-0.0005153846153846144,0.0024615384615384616
0.8240000000000001,1.0,9.067427692307692,-4.625083076923077,-1.1043276923076923,-0.0819,-0.0005107692307692296,0.0024630769230769233
0.8250000000000001,1.0,9.067501538461539,-4.625304615384615,-1.1044015384615384,-0.0819,-0.0005061538461538449,0.002464615384615385
0.8260000000000001,1.0,9.067575384615385,-4.625526153846153,-1.1044753846153847,-0.0819,-0.0005015384615384601,0.0024661538461538467
0.8270000000000001,1.0,9.06764923076923,-4.625747692307693,-1.1045492307692308,-0.0819,-0.0004969230769230754,0.0024676923076923083
0.8280000000000001,1.0,9.067723076923077,-4.625969230769231,-1.104623076923077,-0.0819,-0.0004923076923076905,0.00246923076923077
0.8290000000000001,1.0,9.067796923076923,-4.626190769230769,-1.1046969230769232,-0.0819,-0.00048769230769230574,0.0024707692307692312
0.8300000000000001,1.0,9.067870769230769,-4.626412307692307,-1.1047707692307693,-0.0819,-0.0004830769230769209,0.002472307692307693
0.8310000000000001,1.0,9.067944615384615,-4.626633846153846,-1.1048446153846154,-0.0819,-0.00047846153846153617,0.0024738461538461546
0.8320000000000001,1.0,9.068018461538461,-4.626855384615385,-1.1049184615384617,-0.0819,-0.0004738461538461514,0.0024753846153846163
0.833,1.0,9.068092307692307,-4.627076923076923,-1.1049923076923078,-0.0819,-0.00046923076923076714,0.0024769230769230775
0.834,1.0,9.068166153846153,-4.627298461538461,-1.105066153846154,-0.0819,-0.00046461538461538233,0.002478461538461539
0.835,1.0,9.06824,-4.62752,-1.10514,-0.0819,-0.0004599999999999976,0.002480000000000001
0.836,1.0,9.068313846153846,-4.627741538461539,-1.1052138461538463,-0.0819,-0.00045538461538461276,0.0024815384615384625
0.837,1.0,9.068387692307693,-4.627963076923077,-1.1052876923076924,-0.0819,-0.000450769230769228,0.0024830769230769242
0.838,1.0,9.06846153846154,-4.628184615384615,-1.1053615384615385,-0.0819,-0.0004461538461538432,0.0024846153846153855
0.839,1.0,9.068535384615386,-4.628406153846154,-1.1054353846153848,-0.0819,-0.00044153846153845844,0.002486153846153847
0.84,1.0,9.068609230769232,-4.628627692307692,-1.105509230769231,-0.0819,-0.0004369230769230737,0.002487692307692309
0.841,1.0,9.068683076923078,-4.628849230769231,-1.105583076923077,-0.0819,-0.00043230769230768887,0.0024892307692307705
0.842,1.0,9.068756923076924,-4.629070769230769,-1.1056569230769233,-0.0819,-0.0004276923076923041,0.002490769230769232
0.843,1.0,9.06883076923077,-4.629292307692308,-1.1057307692307694,-0.0819,-0.0004230769230769193,0.0024923076923076934
0.844,1.0,9.068904615384616,-4.629513846153846,-1.1058046153846155,-0.0819,-0.00041846153846153455,0.002493846153846155
0.845,1.0,9.068978461538462,-4.629735384615385,-1.1058784615384616,-0.0819,-0.00041384615384614974,0.0024953846153846168
0.846,1.0,9.069052307692308,-4.629956923076923,-1.105952307692308,-0.0819,-0.000409230769230765,0.0024969230769230784
0.847,1.0,9.069126153846154,-4.630178461538462,-1.106026153846154,-0.0819,-0.0004046153846153802,0.00249846153846154
0.848,1.0,9.0692,-4.6304,-1.1061,-0.0819,-0.0003999999999999954,0.002500000000000009
0.849,1.0,9.069126153846154,-4.630326153846154,-1.1061,-0.0819046153846154,-0.0003953846153846106,0.0025092307692307788
0.85,1.0,9.069052307692308,-4.630252307692308,-1.1061,-0.08190923076923078,-0.00039076923076922584,0.0025184615384615484
0.851,1.0,9.068978461538462,-4.630178461538462,-1.1061,-0.08191384615384616,-0.0003861538461538411,0.002527692307692318
0.852,1.0,9.068904615384616,-4.6301046153846155,-1.1061,-0.08191846153846154,-0.0003815384615384563,0.0025369230769230876
0.853,1.0,9.06883076923077,-4.630030769230769,-1.1061,-0.08192307692307693,-0.0003769230769230715,0.0025461538461538573
0.854,1.0,9.068756923076924,-4.629956923076923,-1.1061,-0.08192769230769231,-0.0003723076923076867,0.0025553846153846265
0.855,1.0,9.068683076923078,-4.629883076923076,-1.1061,-0.0819323076923077,-0.00036769230769230195,0.002564615384615396
0.856,1.0,9.068609230769232,-4.62980923076923,-1.1061,-0.08193692307692309,-0.00036307692307691714,0.0025738461538461657
0.857,1.0,9.068535384615386,-4.629735384615384,-1.1061,-0.08194153846153847,-0.0003584615384615324,0.0025830769230769353
0.858,1.0,9.068461538461538,-4.629661538461538,-1.1061,-0.08194615384615385,-0.00035384615384614757,0.002592307692307705
0.859,1.0,9.068387692307692,-4.629587692307692,-1.1061,-0.08195076923076924,-0.0003492307692307628,0.0026015384615384746
0.86,1.0,9.068313846153846,-4.629513846153846,-1.1061,-0.08195538461538462,-0.000344615384615378,0.002610769230769244
0.861,1.0,9.06824,-4.62944,-1.1061,-0.08196,-0.00033999999999999325,0.0026200000000000134
0.862,1.0,9.068166153846153,-4.629366153846154,-1.1061,-0.08196461538461539,-0.0003353846153846085,0.002629230769230783
0.863,1.0,9.068092307692307,-4.629292307692308,-1.1061,-0.08196923076923078,-0.0003307692307692237,0.0026384615384615526
0.864,1.0,9.068018461538461,-4.6292184615384615,-1.1061,-0.08197384615384616,-0.0003261538461538389,0.0026476923076923222
0.865,1.0,9.067944615384615,-4.629144615384615,-1.1061,-0.08197846153846154,-0.0003215384615384541,0.002656923076923092
0.866,1.0,9.067870769230769,-4.629070769230769,-1.1061,-0.08198307692307694,-0.00031692307692306936,0.0026661538461538615
0.867,1.0,9.067796923076923,-4.628996923076923,-1.1061,-0.08198769230769232,-0.00031230769230768454,0.0026753846153846307
0.868,1.0,9.067723076923077,-4.628923076923077,-1.1061,-0.0819923076923077,-0.0003076923076922998,0.0026846153846154003
0.869,1.0,9.06764923076923,-4.628849230769231,-1.1061,-0.08199692307692308,-0.00030307692307691503,0.00269384615384617
0.87,1.0,9.067575384615385,-4.628775384615384,-1.1061,-0.08200153846153847,-0.0002984615384615302,0.0027030769230769395
0.871,1.0,9.067501538461539,-4.628701538461538,-1.1061,-0.08200615384615385,-0.0002938461538461454,0.002712307692307709
0.872,1.0,9.067427692307692,-4.628627692307692,-1.1061,-0.08201076923076923,-0.00028923076923076065,0.002721538461538479
0.873,1.0,9.067353846153846,-4.628553846153846,-1.1061,-0.08201538461538463,-0.0002846153846153759,0.0027307692307692484
0.874,1.0,9.06728,-4.62848,-1.1061,-0.08202000000000001,-0.0002799999999999911,0.0027400000000000176
0.875,1.0,9.067206153846154,-4.628406153846154,-1.1061,-0.08202461538461539,-0.0002753846153846063,0.0027492307692307872
0.876,1.0,9.067132307692308,-4.6283323076923075,-1.1061,-0.08202923076923077,-0.00027076923076922157,0.002758461538461557
0.877,1.0,9.067058461538462,-4.628258461538461,-1.1061,-0.08203384615384617,-0.00026615384615383676,0.0027676923076923265
0.878,1.0,9.066984615384616,-4.628184615384615,-1.1061,-0.08203846153846155,-0.00026153846153845195,0.002776923076923096
0.879,1.0,9.066910769230768,-4.628110769230769,-1.1061,-0.08204307692307693,-0.0002569230769230672,0.0027861538461538657
0.88,1.0,9.066836923076922,-4.628036923076923,-1.1061,-0.08204769230769232,-0.00025230769230768244,0.0027953846153846353
0.881,1.0,9.066763076923076,-4.627963076923077,-1.1061,-0.0820523076923077,-0.0002476923076922976,0.0028046153846154045
0.882,1.0,9.06668923076923,-4.627889230769231,-1.1061,-0.08205692307692308,-0.00024307692307691284,0.002813846153846174
0.883,1.0,9.066615384615384,-4.627815384615385,-1.1061,-0.08206153846153846,-0.00023846153846152806,0.0028230769230769438
0.884,1.0,9.066541538461538,-4.627741538461539,-1.1061,-0.08206615384615386,-0.00023384615384614327,0.0028323076923077134
0.885,1.0,9.066467692307691,-4.627667692307693,-1.1061,-0.08207076923076924,-0.0002292307692307585,0.002841538461538483
0.886,1.0,9.066393846153845,-4.627593846153846,-1.1061,-0.08207538461538462,-0.00022461538461537373,0.0028507692307692526
0.887,1.0,9.06632,-4.62752,-1.1061,-0.08208000000000001,-0.00021999999999998895,0.0028600000000000222
0.888,1.0,9.066246153846153,-4.6274461538461535,-1.1061,-0.0820846153846154,-0.00021538461538460417,0.0028692307692307914
0.889,1.0,9.066172307692307,-4.6273723076923075,-1.1061,-0.08208923076923078,-0.00021076923076921938,0.002878461538461561
0.89,1.0,9.066098461538461,-4.627298461538461,-1.1061,-0.08209384615384616,-0.0002061538461538346,0.0028876923076923307
0.891,1.0,9.066024615384615,-4.627224615384615,-1.1061,-0.08209846153846155,-0.0002015384615384498,0.0028969230769231003
0.892,1.0,9.065950769230769,-4.627150769230769,-1.1061,-0.08210307692307693,-0.00019692307692306503,0.00290615384615387
0.893,1.0,9.065876923076923,-4.627076923076923,-1.1061,-0.08210769230769231,-0.00019230769230768025,0.0029153846153846395
0.894,1.0,9.065803076923077,-4.627003076923077,-1.1061,-0.0821123076923077,-0.00018769230769229546,0.002924615384615409
0.895,1.0,9.06572923076923,-4.626929230769231,-1.1061,-0.08211692307692309,-0.00018307692307691068,0.0029338461538461784
0.896,1.0,9.065655384615384,-4.626855384615385,-1.1061,-0.08212153846153847,-0.00017846153846152592,0.002943076923076948
0.897,1.0,9.065581538461538,-4.626781538461539,-1.1061,-0.08212615384615385,-0.00017384615384614114,0.0029523076923077176
0.898,1.0,9.065507692307692,-4.626707692307693,-1.1061,-0.08213076923076924,-0.00016923076923075635,0.0029615384615384872
0.899,1.0,9.065433846153846,-4.6266338461538465,-1.1061,-0.08213538461538462,-0.00016461538461537157,0.002970769230769257
0.9,1.0,9.065359999999998,-4.6265600000000004,-1.1061,-0.08214,-0.00015999999999998679,0.0029800000000000265
0.901,1.0,9.065286153846152,-4.6264861538461535,-1.1061,-0.0821446153846154,-0.000155384615384602,0.002989230769230796
0.902,1.0,9.065212307692306,-4.626412307692307,-1.1061,-0.08214923076923078,-0.00015076923076921725,0.0029984615384615653
0.903,1.0,9.06513846153846,-4.626338461538461,-1.1061,-0.08215384615384616,-0.00014615384615383243,0.003007692307692335
0.904,1.0,9.065064615384614,-4.626264615384615,-1.1061,-0.08215846153846156,-0.00014153846153844768,0.0030169230769231045
0.905,1.0,9.064990769230768,-4.626190769230769,-1.1061,-0.08216307692307694,-0.00013692307692306287,0.003026153846153874
0.906,1.0,9.064916923076922,-4.626116923076923,-1.1061,-0.08216769230769232,-0.0001323076923076781,0.0030353846153846438
0.907,1.0,9.064843076923076,-4.626043076923077,-1.1061,-0.0821723076923077,-0.0001276923076922933,0.0030446153846154134
0.908,1.0,9.06476923076923,-4.625969230769231,-1.1061,-0.08217692307692309,-0.00012307692307690854,0.003053846153846183
0.909,1.0,9.064695384615383,-4.625895384615385,-1.1061,-0.08218153846153847,-0.00011846153846152373,0.003063076923076952
0.91,1.0,9.064621538461537,-4.625821538461539,-1.1061,-0.08218615384615385,-0.00011384615384613897,0.003072307692307722
0.911,1.0,9.064547692307691,-4.625747692307693,-1.1061,-0.08219076923076925,-0.00010923076923075416,0.0030815384615384914
0.912,1.0,9.064473846153845,-4.6256738461538465,-1.1061,-0.08219538461538463,-0.0001046153846153694,0.003090769230769261
0.913,1.0,9.0644,-4.6256,-1.1060999999999996,-0.0822,-9.999999999999496e-05,0.0030999999999999847
0.914,1.0,9.064472727272726,-4.625527272727273,-1.105954545454545,-0.08219848484848484,-9.84848484848435e-05,0.0030954545454545306
0.915,1.0,9.064545454545454,-4.625454545454546,-1.1058090909090905,-0.08219696969696969,-9.696969696969204e-05,0.003090909090909076
0.916,1.0,9.064618181818181,-4.625381818181818,-1.105663636363636,-0.08219545454545453,-9.545454545454058e-05,0.0030863636363636215
0.917,1.0,9.064690909090908,-4.625309090909091,-1.1055181818181814,-0.08219393939393939,-9.393939393938912e-05,0.0030818181818181674
0.918,1.0,9.064763636363637,-4.625236363636364,-1.105372727272727,-0.08219242424242423,-9.242424242423766e-05,0.003077272727272713
0.919,1.0,9.064836363636363,-4.625163636363636,-1.1052272727272723,-0.08219090909090908,-9.09090909090862e-05,0.0030727272727272587
0.92,1.0,9.06490909090909,-4.625090909090909,-1.1050818181818178,-0.08218939393939394,-8.939393939393474e-05,0.003068181818181804
0.921,1.0,9.064981818181817,-4.625018181818182,-1.1049363636363632,-0.08218787878787878,-8.787878787878328e-05,0.0030636363636363496
0.922,1.0,9.065054545454545,-4.624945454545455,-1.1047909090909087,-0.08218636363636363,-8.636363636363182e-05,0.0030590909090908954
0.923,1.0,9.065127272727272,-4.624872727272727,-1.1046454545454543,-0.08218484848484847,-8.484848484848037e-05,0.003054545454545441
0.924,1.0,9.065199999999999,-4.6248000000000005,-1.1044999999999996,-0.08218333333333333,-8.33333333333289e-05,0.0030499999999999867
0.925,1.0,9.065272727272728,-4.624727272727273,-1.1043545454545451,-0.08218181818181818,-8.181818181817745e-05,0.003045454545454532
0.926,1.0,9.065345454545454,-4.624654545454545,-1.1042090909090905,-0.08218030303030302,-8.030303030302599e-05,0.003040909090909078
0.927,1.0,9.065418181818181,-4.624581818181818,-1.104063636363636,-0.08217878787878788,-7.878787878787453e-05,0.0030363636363636235
0.928,1.0,9.065490909090908,-4.624509090909091,-1.1039181818181816,-0.08217727272727272,-7.727272727272307e-05,0.003031818181818169
0.929,1.0,9.065563636363636,-4.624436363636364,-1.103772727272727,-0.08217575757575757,-7.575757575757161e-05,0.003027272727272715
0.93,1.0,9.065636363636363,-4.624363636363636,-1.1036272727272725,-0.08217424242424241,-7.424242424242015e-05,0.0030227272727272603
0.931,1.0,9.06570909090909,-4.6242909090909095,-1.1034818181818178,-0.08217272727272727,-7.272727272726869e-05,0.003018181818181806
0.932,1.0,9.065781818181819,-4.624218181818182,-1.1033363636363633,-0.08217121212121212,-7.121212121211723e-05,0.0030136363636363516
0.933,1.0,9.065854545454545,-4.624145454545455,-1.1031909090909089,-0.08216969696969696,-6.969696969696577e-05,0.003009090909090897
0.934,1.0,9.065927272727272,-4.624072727272727,-1.1030454545454542,-0.0821681818181818,-6.818181818181432e-05,0.003004545454545443
0.935,1.0,9.065999999999999,-4.624,-1.1028999999999998,-0.08216666666666667,-6.666666666666285e-05,0.0029999999999999884
0.936,1.0,9.066072727272728,-4.623927272727273,-1.102754545454545,-0.08216515151515151,-6.51515151515114e-05,0.0029954545454545342
0.937,1.0,9.066145454545454,-4.623854545454545,-1.1026090909090907,-0.08216363636363636,-6.363636363635993e-05,0.0029909090909090797
0.9380000000000001,1.0,9.066218181818181,-4.623781818181818,-1.102463636363636,-0.08216212121212121,-6.212121212120848e-05,0.0029863636363636255
0.9390000000000001,1.0,9.06629090909091,-4.623709090909091,-1.1023181818181815,-0.08216060606060606,-6.060606060605702e-05,0.002981818181818171
0.9400000000000001,1.0,9.066363636363636,-4.623636363636364,-1.102172727272727,-0.0821590909090909,-5.909090909090556e-05,0.0029772727272727164
0.9410000000000001,1.0,9.066436363636363,-4.623563636363636,-1.1020272727272724,-0.08215757575757575,-5.75757575757541e-05,0.0029727272727272623
0.9420000000000001,1.0,9.06650909090909,-4.6234909090909095,-1.101881818181818,-0.08215606060606061,-5.606060606060264e-05,0.0029681818181818078
0.9430000000000001,1.0,9.066581818181819,-4.623418181818182,-1.1017363636363633,-0.08215454545454545,-5.454545454545118e-05,0.0029636363636363536
0.9440000000000001,1.0,9.066654545454545,-4.623345454545454,-1.1015909090909088,-0.0821530303030303,-5.3030303030299725e-05,0.002959090909090899
0.9450000000000001,1.0,9.066727272727272,-4.623272727272727,-1.1014454545454544,-0.08215151515151514,-5.1515151515148264e-05,0.002954545454545445
0.9460000000000001,1.0,9.0668,-4.6232,-1.1012999999999997,-0.08215,-4.9999999999996804e-05,0.0029499999999999904
0.9470000000000001,1.0,9.066872727272727,-4.623127272727273,-1.1011545454545453,-0.08214848484848485,-4.8484848484845344e-05,0.002945454545454536
0.9480000000000001,1.0,9.066945454545454,-4.623054545454545,-1.1010090909090906,-0.08214696969696969,-4.696969696969388e-05,0.0029409090909090817
0.9490000000000001,1.0,9.067018181818181,-4.6229818181818185,-1.1008636363636362,-0.08214545454545455,-4.545454545454242e-05,0.002936363636363627
0.9500000000000001,1.0,9.06709090909091,-4.622909090909091,-1.1007181818181815,-0.0821439393939394,-4.393939393939097e-05,0.002931818181818173
0.9510000000000001,1.0,9.067163636363636,-4.622836363636364,-1.100572727272727,-0.08214242424242424,-4.242424242423951e-05,0.0029272727272727185
0.9520000000000001,1.0,9.067236363636363,-4.622763636363636,-1.1004272727272726,-0.08214090909090908,-4.090909090908805e-05,0.002922727272727264
0.9530000000000001,1.0,9.067309090909092,-4.622690909090909,-1.100281818181818,-0.08213939393939394,-3.939393939393659e-05,0.00291818181818181
0.9540000000000001,1.0,9.067381818181818,-4.622618181818182,-1.1001363636363635,-0.08213787878787879,-3.787878787878513e-05,0.0029136363636363552
0.9550000000000001,1.0,9.067454545454545,-4.622545454545454,-1.0999909090909088,-0.08213636363636363,-3.636363636363367e-05,0.002909090909090901
0.9560000000000001,1.0,9.067527272727272,-4.6224727272727275,-1.0998454545454543,-0.08213484848484849,-3.484848484848221e-05,0.0029045454545454466
0.9570000000000001,1.0,9.0676,-4.6224,-1.0997,-0.08213333333333334,-3.3333333333330746e-05,0.002899999999999992
0.9580000000000001,1.0,9.067672727272727,-4.622327272727273,-1.0995545454545452,-0.08213181818181818,-3.1818181818179286e-05,0.002895454545454538
0.9590000000000001,1.0,9.067745454545454,-4.622254545454545,-1.0994090909090908,-0.08213030303030303,-3.030303030302784e-05,0.0028909090909090833
0.96,1.0,9.067818181818183,-4.622181818181819,-1.099263636363636,-0.08212878787878788,-2.878787878787654e-05,0.0028863636363636296
0.961,1.0,9.06789090909091,-4.622109090909091,-1.0991181818181817,-0.08212727272727273,-2.727272727272508e-05,0.002881818181818175
0.962,1.0,9.067963636363636,-4.622036363636363,-1.0989727272727272,-0.08212575757575757,-2.575757575757362e-05,0.002877272727272721
0.963,1.0,9.068036363636363,-4.6219636363636365,-1.0988272727272725,-0.08212424242424242,-2.424242424242216e-05,0.0028727272727272664
0.964,1.0,9.068109090909092,-4.621890909090909,-1.098681818181818,-0.08212272727272728,-2.27272727272707e-05,0.0028681818181818123
0.965,1.0,9.068181818181818,-4.621818181818182,-1.0985363636363634,-0.08212121212121212,-2.121212121211924e-05,0.0028636363636363577
0.966,1.0,9.068254545454545,-4.621745454545454,-1.098390909090909,-0.08211969696969697,-1.9696969696967793e-05,0.002859090909090903
0.967,1.0,9.068327272727274,-4.621672727272728,-1.0982454545454543,-0.08211818181818183,-1.8181818181816332e-05,0.002854545454545449
0.968,1.0,9.0684,-4.6216,-1.0980999999999999,-0.08211666666666667,-1.6666666666664872e-05,0.0028499999999999945
0.969,1.0,9.068472727272727,-4.621527272727273,-1.0979545454545454,-0.08211515151515152,-1.5151515151513411e-05,0.0028454545454545403
0.97,1.0,9.068545454545454,-4.6214545454545455,-1.0978090909090907,-0.08211363636363636,-1.3636363636361951e-05,0.002840909090909086
0.971,1.0,9.068618181818183,-4.621381818181818,-1.0976636363636363,-0.08211212121212122,-1.212121212121049e-05,0.0028363636363636317
0.972,1.0,9.06869090909091,-4.621309090909091,-1.0975181818181816,-0.08211060606060606,-1.060606060605903e-05,0.002831818181818177
0.973,1.0,9.068763636363636,-4.621236363636363,-1.0973727272727272,-0.08210909090909091,-9.09090909090757e-06,0.0028272727272727225
0.974,1.0,9.068836363636365,-4.621163636363637,-1.0972272727272727,-0.08210757575757577,-7.575757575756109e-06,0.0028227272727272684
0.975,1.0,9.068909090909091,-4.621090909090909,-1.097081818181818,-0.08210606060606061,-6.060606060604649e-06,0.002818181818181814
0.976,1.0,9.068981818181818,-4.621018181818182,-1.0969363636363636,-0.08210454545454546,-4.5454545454531886e-06,0.0028136363636363597
0.977,1.0,9.069054545454545,-4.6209454545454545,-1.096790909090909,-0.0821030303030303,-3.030303030301728e-06,0.002809090909090905
0.978,1.0,9.069127272727274,-4.620872727272727,-1.0966454545454545,-0.08210151515151516,-1.5151515151502813e-06,0.002804545454545451
0.979,1.0,9.0692,-4.6208,-1.0964999999999998,-0.0821,-6.0715321659188194e-18,0.0027999999999999965
0.98,1.0,9.069275000000001,-4.620950000000001,-1.0963515625,-0.082096875,-7.812500000006072e-06,0.002795312499999996
0.981,1.0,9.06935,-4.6211,-1.096203125,-0.08209375000000001,-1.5625000000006072e-05,0.0027906249999999962
0.982,1.0,9.069425,-4.62125,-1.0960546875,-0.082090625,-2.3437500000006072e-05,0.0027859374999999963
0.983,1.0,9.0695,-4.6214,-1.0959062499999999,-0.08208750000000001,-3.125000000000607e-05,0.0027812499999999964
0.984,1.0,9.069575,-4.62155,-1.0957578124999998,-0.082084375,-3.906250000000607e-05,0.0027765624999999965
0.985,1.0,9.069650000000001,-4.6217,-1.095609375,-0.08208125000000001,-4.687500000000607e-05,0.002771874999999996
0.986,1.0,9.069725,-4.62185,-1.0954609375,-0.082078125,-5.468750000000607e-05,0.002767187499999996
0.987,1.0,9.0698,-4.622,-1.0953125,-0.08207500000000001,-6.250000000000607e-05,0.0027624999999999963
0.988,1.0,9.069875,-4.62215,-1.0951640624999999,-0.082071875,-7.031250000000607e-05,0.0027578124999999964
0.989,1.0,9.06995,-4.6223,-1.0950156249999998,-0.08206875000000001,-7.812500000000607e-05,0.0027531249999999965
0.99,1.0,9.070025000000001,-4.62245,-1.0948671875,-0.082065625,-8.593750000000607e-05,0.0027484374999999965
0.991,1.0,9.0701,-4.6226,-1.09471875,-0.0820625,-9.375000000000607e-05,0.002743749999999996
0.992,1.0,9.070175,-4.62275,-1.0945703125,-0.082059375,-0.00010156250000000607,0.0027390624999999963
0.993,1.0,9.07025,-4.6229000000000005,-1.0944218749999999,-0.08205625,-0.00010937500000000607,0.0027343749999999964
0.994,1.0,9.070325,-4.62305,-1.0942734374999998,-0.082053125,-0.00011718750000000607,0.0027296874999999964
0.995,1.0,9.070400000000001,-4.6232,-1.0941249999999998,-0.08205,-0.00012500000000000607,0.0027249999999999965
0.996,1.0,9.070475,-4.62335,-1.0939765625,-0.082046875,-0.00013281250000000608,0.002720312499999996
0.997,1.0,9.07055,-4.6235,-1.093828125,-0.08204375,-0.00014062500000000606,0.0027156249999999963
0.998,1.0,9.070625,-4.6236500000000005,-1.0936796874999999,-0.082040625,-0.00014843750000000607,0.0027109374999999963
0.999,1.0,9.0707,-4.6238,-1.0935312499999998,-0.0820375,-0.00015625000000000607,0.0027062499999999964
1.0,1.0,9.070775000000001,-4.62395,-1.0933828124999998,-0.082034375,-0.00016406250000000608,0.0027015624999999965
1.0010000000000001,1.0,9.07085,-4.6241,-1.093234375,-0.08203125,-0.00017187500000000693,0.0026968749999999957
1.002,1.0,9.070925,-4.62425,-1.0930859375,-0.08202812500000001,-0.00017968750000000607,0.0026921874999999962
1.0030000000000001,1.0,9.071,-4.6244000000000005,-1.0929375,-0.082025,-0.00018750000000000694,0.002687499999999996
1.004,1.0,9.071075,-4.62455,-1.0927890624999999,-0.08202187500000001,-0.00019531250000000608,0.0026828124999999964
